LoopName,thisN,thisTrialN,thisRepN,px1,px2,px3,px4,py1,py2,py3,py4,MainLoop.thisRepN,MainLoop.thisTrialN,MainLoop.thisN,MainLoop.thisIndex,loop_1.thisRepN,loop_1.thisTrialN,loop_1.thisN,loop_1.thisIndex,loop_2.thisRepN,loop_2.thisTrialN,loop_2.thisN,loop_2.thisIndex,loop_3.thisRepN,loop_3.thisTrialN,loop_3.thisN,loop_3.thisIndex,loop_4.thisRepN,loop_4.thisTrialN,loop_4.thisN,loop_4.thisIndex,loop_5.thisRepN,loop_5.thisTrialN,loop_5.thisN,loop_5.thisIndex,loop_6.thisRepN,loop_6.thisTrialN,loop_6.thisN,loop_6.thisIndex,loop_7.thisRepN,loop_7.thisTrialN,loop_7.thisN,loop_7.thisIndex,loop_8.thisRepN,loop_8.thisTrialN,loop_8.thisN,loop_8.thisIndex,loop_9.thisRepN,loop_9.thisTrialN,loop_9.thisN,loop_9.thisIndex,loop_10.thisRepN,loop_10.thisTrialN,loop_10.thisN,loop_10.thisIndex,loop_11.thisRepN,loop_11.thisTrialN,loop_11.thisN,loop_11.thisIndex,loop_12.thisRepN,loop_12.thisTrialN,loop_12.thisN,loop_12.thisIndex,thisRow.t,notes,codigo.started,codigo.stopped,_intertrial_interval_.started,polygon_5.started,_intertrial_interval_.stopped,trial.started,image.started,image_2.started,polygon.started,trial.stopped,trial_2.started,image_3.started,image_4.started,polygon_2.started,trial_2.stopped,image_3.stopped,image_4.stopped,polygon_2.stopped,image.stopped,image_2.stopped,polygon.stopped,trial_3.started,image_5.started,image_6.started,polygon_3.started,trial_3.stopped,trial_4.started,image_7.started,image_8.started,polygon_4.started,image_7.stopped,image_8.stopped,polygon_4.stopped,trial_4.stopped,image_5.stopped,image_6.stopped,polygon_3.stopped,trial_5.started,image_9.started,polygon_6.started,image_10.started,trial_5.stopped,trial_6.started,image_11.started,image_12.started,polygon_7.started,trial_6.stopped,participant,session,date,expName,psychopyVersion,frameRate,expStart,
Estimulo_11,0,0,0,2.2,-2.2,-2.2,2.2,3.5,-3.5,3.5,-3.5,0,0,0,3,,,,,,,,,,,,,,,,,,,,,,,,,,,,,,,,,,,,,,,,,0,0,0,9,,,,,0.17035980000036943,,0.021443399999952817,0.021830900000168185,,,,,,,,,,,,,,,,,,,,,,,,,,,,,,,,,,,,,,,,,,,,,,028938,001,2025-03-17_15h14.44.897,Estimulo_ICE,2024.2.4,60.0279730356233,2025-03-17 15h14.50.296915 -0300,
Estimulo_11,1,1,0,2.2,-2.2,-2.2,2.2,2.59999999999999,-2.59999999999999,2.59999999999999,-2.59999999999999,0,0,0,3,,,,,,,,,,,,,,,,,,,,,,,,,,,,,,,,,,,,,,,,,0,1,1,18,,,,,0.17035980000036943,,,,,,,,,,,,,,,,,,,,,,,,,,,,,,,,,,,,,,,,,,,,,,,,,028938,001,2025-03-17_15h14.44.897,Estimulo_ICE,2024.2.4,60.0279730356233,2025-03-17 15h14.50.296915 -0300,
Estimulo_11,2,2,0,2.2,-2.2,-2.2,2.2,2.99999999999999,-2.99999999999999,2.99999999999999,-2.99999999999999,0,0,0,3,,,,,,,,,,,,,,,,,,,,,,,,,,,,,,,,,,,,,,,,,0,2,2,14,,,,,0.17035980000036943,,,,,,,,,,,,,,,,,,,,,,,,,,,,,,,,,,,,,,,,,,,,,,,,,028938,001,2025-03-17_15h14.44.897,Estimulo_ICE,2024.2.4,60.0279730356233,2025-03-17 15h14.50.296915 -0300,
Estimulo_11,3,3,0,2.2,-2.2,-2.2,2.2,4.2,-4.2,4.2,-4.2,0,0,0,3,,,,,,,,,,,,,,,,,,,,,,,,,,,,,,,,,,,,,,,,,0,3,3,2,,,,,0.17035980000036943,,,,,,,,,,,,,,,,,,,,,,,,,,,,,,,,,,,,,,,,,,,,,,,,,028938,001,2025-03-17_15h14.44.897,Estimulo_ICE,2024.2.4,60.0279730356233,2025-03-17 15h14.50.296915 -0300,
Estimulo_11,4,4,0,2.2,-2.2,-2.2,2.2,2.89999999999999,-2.89999999999999,2.89999999999999,-2.89999999999999,0,0,0,3,,,,,,,,,,,,,,,,,,,,,,,,,,,,,,,,,,,,,,,,,0,4,4,15,,,,,0.17035980000036943,,,,,,,,,,,,,,,,,,,,,,,,,,,,,,,,,,,,,,,,,,,,,,,,,028938,001,2025-03-17_15h14.44.897,Estimulo_ICE,2024.2.4,60.0279730356233,2025-03-17 15h14.50.296915 -0300,
Estimulo_11,5,5,0,2.2,-2.2,-2.2,2.2,2.79999999999999,-2.79999999999999,2.79999999999999,-2.79999999999999,0,0,0,3,,,,,,,,,,,,,,,,,,,,,,,,,,,,,,,,,,,,,,,,,0,5,5,16,,,,,0.17035980000036943,,,,,,,,,,,,,,,,,,,,,,,,,,,,,,,,,,,,,,,,,,,,,,,,,028938,001,2025-03-17_15h14.44.897,Estimulo_ICE,2024.2.4,60.0279730356233,2025-03-17 15h14.50.296915 -0300,
Estimulo_11,6,6,0,2.2,-2.2,-2.2,2.2,3.7,-3.7,3.7,-3.7,0,0,0,3,,,,,,,,,,,,,,,,,,,,,,,,,,,,,,,,,,,,,,,,,0,6,6,7,,,,,0.17035980000036943,,,,,,,,,,,,,,,,,,,,,,,,,,,,,,,,,,,,,,,,,,,,,,,,,028938,001,2025-03-17_15h14.44.897,Estimulo_ICE,2024.2.4,60.0279730356233,2025-03-17 15h14.50.296915 -0300,
Estimulo_11,7,7,0,2.2,-2.2,-2.2,2.2,3.8,-3.8,3.8,-3.8,0,0,0,3,,,,,,,,,,,,,,,,,,,,,,,,,,,,,,,,,,,,,,,,,0,7,7,6,,,,,0.17035980000036943,,,,,,,,,,,,,,,,,,,,,,,,,,,,,,,,,,,,,,,,,,,,,,,,,028938,001,2025-03-17_15h14.44.897,Estimulo_ICE,2024.2.4,60.0279730356233,2025-03-17 15h14.50.296915 -0300,
Estimulo_11,8,8,0,2.2,-2.2,-2.2,2.2,1.29999999999998,-1.29999999999998,1.29999999999998,-1.29999999999998,0,0,0,3,,,,,,,,,,,,,,,,,,,,,,,,,,,,,,,,,,,,,,,,,0,8,8,31,,,,,0.17035980000036943,,,,,,,,,,,,,,,,,,,,,,,,,,,,,,,,,,,,,,,,,,,,,,,,,028938,001,2025-03-17_15h14.44.897,Estimulo_ICE,2024.2.4,60.0279730356233,2025-03-17 15h14.50.296915 -0300,
Estimulo_11,9,9,0,2.2,-2.2,-2.2,2.2,1.69999999999999,-1.69999999999999,1.69999999999999,-1.69999999999999,0,0,0,3,,,,,,,,,,,,,,,,,,,,,,,,,,,,,,,,,,,,,,,,,0,9,9,27,,,,,0.17035980000036943,,,,,,,,,,,,,,,,,,,,,,,,,,,,,,,,,,,,,,,,,,,,,,,,,028938,001,2025-03-17_15h14.44.897,Estimulo_ICE,2024.2.4,60.0279730356233,2025-03-17 15h14.50.296915 -0300,
Estimulo_11,10,10,0,2.2,-2.2,-2.2,2.2,1.19999999999998,-1.19999999999998,1.19999999999998,-1.19999999999998,0,0,0,3,,,,,,,,,,,,,,,,,,,,,,,,,,,,,,,,,,,,,,,,,0,10,10,32,,,,,0.17035980000036943,,,,,,,,,,,,,,,,,,,,,,,,,,,,,,,,,,,,,,,,,,,,,,,,,028938,001,2025-03-17_15h14.44.897,Estimulo_ICE,2024.2.4,60.0279730356233,2025-03-17 15h14.50.296915 -0300,
Estimulo_11,11,11,0,2.2,-2.2,-2.2,2.2,1.99999999999999,-1.99999999999999,1.99999999999999,-1.99999999999999,0,0,0,3,,,,,,,,,,,,,,,,,,,,,,,,,,,,,,,,,,,,,,,,,0,11,11,24,,,,,0.17035980000036943,,,,,,,,,,,,,,,,,,,,,,,,,,,,,,,,,,,,,,,,,,,,,,,,,028938,001,2025-03-17_15h14.44.897,Estimulo_ICE,2024.2.4,60.0279730356233,2025-03-17 15h14.50.296915 -0300,
Estimulo_11,12,12,0,2.2,-2.2,-2.2,2.2,4.4,-4.4,4.4,-4.4,0,0,0,3,,,,,,,,,,,,,,,,,,,,,,,,,,,,,,,,,,,,,,,,,0,12,12,0,,,,,0.17035980000036943,,,,,,,,,,,,,,,,,,,,,,,,,,,,,,,,,,,,,,,,,,,,,,,,,028938,001,2025-03-17_15h14.44.897,Estimulo_ICE,2024.2.4,60.0279730356233,2025-03-17 15h14.50.296915 -0300,
Estimulo_11,13,13,0,2.2,-2.2,-2.2,2.2,1.79999999999999,-1.79999999999999,1.79999999999999,-1.79999999999999,0,0,0,3,,,,,,,,,,,,,,,,,,,,,,,,,,,,,,,,,,,,,,,,,0,13,13,26,,,,,0.17035980000036943,,,,,,,,,,,,,,,,,,,,,,,,,,,,,,,,,,,,,,,,,,,,,,,,,028938,001,2025-03-17_15h14.44.897,Estimulo_ICE,2024.2.4,60.0279730356233,2025-03-17 15h14.50.296915 -0300,
Estimulo_11,14,14,0,2.2,-2.2,-2.2,2.2,4.3,-4.3,4.3,-4.3,0,0,0,3,,,,,,,,,,,,,,,,,,,,,,,,,,,,,,,,,,,,,,,,,0,14,14,1,,,,,0.17035980000036943,,,,,,,,,,,,,,,,,,,,,,,,,,,,,,,,,,,,,,,,,,,,,,,,,028938,001,2025-03-17_15h14.44.897,Estimulo_ICE,2024.2.4,60.0279730356233,2025-03-17 15h14.50.296915 -0300,
Estimulo_11,15,15,0,2.2,-2.2,-2.2,2.2,1.09999999999998,-1.09999999999998,1.09999999999998,-1.09999999999998,0,0,0,3,,,,,,,,,,,,,,,,,,,,,,,,,,,,,,,,,,,,,,,,,0,15,15,33,,,,,0.17035980000036943,,,,,,,,,,,,,,,,,,,,,,,,,,,,,,,,,,,,,,,,,,,,,,,,,028938,001,2025-03-17_15h14.44.897,Estimulo_ICE,2024.2.4,60.0279730356233,2025-03-17 15h14.50.296915 -0300,
Estimulo_11,16,16,0,2.2,-2.2,-2.2,2.2,2.29999999999999,-2.29999999999999,2.29999999999999,-2.29999999999999,0,0,0,3,,,,,,,,,,,,,,,,,,,,,,,,,,,,,,,,,,,,,,,,,0,16,16,21,,,,,0.17035980000036943,,,,,,,,,,,,,,,,,,,,,,,,,,,,,,,,,,,,,,,,,,,,,,,,,028938,001,2025-03-17_15h14.44.897,Estimulo_ICE,2024.2.4,60.0279730356233,2025-03-17 15h14.50.296915 -0300,
Estimulo_11,17,17,0,2.2,-2.2,-2.2,2.2,3.09999999999999,-3.09999999999999,3.09999999999999,-3.09999999999999,0,0,0,3,,,,,,,,,,,,,,,,,,,,,,,,,,,,,,,,,,,,,,,,,0,17,17,13,,,,,0.17035980000036943,,,,,,,,,,,,,,,,,,,,,,,,,,,,,,,,,,,,,,,,,,,,,,,,,028938,001,2025-03-17_15h14.44.897,Estimulo_ICE,2024.2.4,60.0279730356233,2025-03-17 15h14.50.296915 -0300,
Estimulo_11,18,18,0,2.2,-2.2,-2.2,2.2,1.49999999999998,-1.49999999999998,1.49999999999998,-1.49999999999998,0,0,0,3,,,,,,,,,,,,,,,,,,,,,,,,,,,,,,,,,,,,,,,,,0,18,18,29,,,,,0.17035980000036943,,,,,,,,,,,,,,,,,,,,,,,,,,,,,,,,,,,,,,,,,,,,,,,,,028938,001,2025-03-17_15h14.44.897,Estimulo_ICE,2024.2.4,60.0279730356233,2025-03-17 15h14.50.296915 -0300,
Estimulo_11,19,19,0,2.2,-2.2,-2.2,2.2,1.39999999999998,-1.39999999999998,1.39999999999998,-1.39999999999998,0,0,0,3,,,,,,,,,,,,,,,,,,,,,,,,,,,,,,,,,,,,,,,,,0,19,19,30,,,,,0.17035980000036943,,,,,,,,,,,,,,,,,,,,,,,,,,,,,,,,,,,,,,,,,,,,,,,,,028938,001,2025-03-17_15h14.44.897,Estimulo_ICE,2024.2.4,60.0279730356233,2025-03-17 15h14.50.296915 -0300,
Estimulo_11,20,20,0,2.2,-2.2,-2.2,2.2,2.39999999999999,-2.39999999999999,2.39999999999999,-2.39999999999999,0,0,0,3,,,,,,,,,,,,,,,,,,,,,,,,,,,,,,,,,,,,,,,,,0,20,20,20,,,,,0.17035980000036943,,,,,,,,,,,,,,,,,,,,,,,,,,,,,,,,,,,,,,,,,,,,,,,,,028938,001,2025-03-17_15h14.44.897,Estimulo_ICE,2024.2.4,60.0279730356233,2025-03-17 15h14.50.296915 -0300,
Estimulo_11,21,21,0,2.2,-2.2,-2.2,2.2,2.69999999999999,-2.69999999999999,2.69999999999999,-2.69999999999999,0,0,0,3,,,,,,,,,,,,,,,,,,,,,,,,,,,,,,,,,,,,,,,,,0,21,21,17,,,,,0.17035980000036943,,,,,,,,,,,,,,,,,,,,,,,,,,,,,,,,,,,,,,,,,,,,,,,,,028938,001,2025-03-17_15h14.44.897,Estimulo_ICE,2024.2.4,60.0279730356233,2025-03-17 15h14.50.296915 -0300,
Estimulo_11,22,22,0,2.2,-2.2,-2.2,2.2,1.89999999999999,-1.89999999999999,1.89999999999999,-1.89999999999999,0,0,0,3,,,,,,,,,,,,,,,,,,,,,,,,,,,,,,,,,,,,,,,,,0,22,22,25,,,,,0.17035980000036943,,,,,,,,,,,,,,,,,,,,,,,,,,,,,,,,,,,,,,,,,,,,,,,,,028938,001,2025-03-17_15h14.44.897,Estimulo_ICE,2024.2.4,60.0279730356233,2025-03-17 15h14.50.296915 -0300,
Estimulo_11,23,23,0,2.2,-2.2,-2.2,2.2,1.59999999999999,-1.59999999999999,1.59999999999999,-1.59999999999999,0,0,0,3,,,,,,,,,,,,,,,,,,,,,,,,,,,,,,,,,,,,,,,,,0,23,23,28,,,,,0.17035980000036943,,,,,,,,,,,,,,,,,,,,,,,,,,,,,,,,,,,,,,,,,,,,,,,,,028938,001,2025-03-17_15h14.44.897,Estimulo_ICE,2024.2.4,60.0279730356233,2025-03-17 15h14.50.296915 -0300,
Estimulo_11,24,24,0,2.2,-2.2,-2.2,2.2,3.19999999999999,-3.19999999999999,3.19999999999999,-3.19999999999999,0,0,0,3,,,,,,,,,,,,,,,,,,,,,,,,,,,,,,,,,,,,,,,,,0,24,24,12,,,,,0.17035980000036943,,,,,,,,,,,,,,,,,,,,,,,,,,,,,,,,,,,,,,,,,,,,,,,,,028938,001,2025-03-17_15h14.44.897,Estimulo_ICE,2024.2.4,60.0279730356233,2025-03-17 15h14.50.296915 -0300,
Estimulo_11,25,25,0,2.2,-2.2,-2.2,2.2,2.19999999999999,-2.19999999999999,2.19999999999999,-2.19999999999999,0,0,0,3,,,,,,,,,,,,,,,,,,,,,,,,,,,,,,,,,,,,,,,,,0,25,25,22,,,,,0.17035980000036943,,,,,,,,,,,,,,,,,,,,,,,,,,,,,,,,,,,,,,,,,,,,,,,,,028938,001,2025-03-17_15h14.44.897,Estimulo_ICE,2024.2.4,60.0279730356233,2025-03-17 15h14.50.296915 -0300,
Estimulo_11,26,26,0,2.2,-2.2,-2.2,2.2,4,-4,4,-4,0,0,0,3,,,,,,,,,,,,,,,,,,,,,,,,,,,,,,,,,,,,,,,,,0,26,26,4,,,,,0.17035980000036943,,,,,,,,,,,,,,,,,,,,,,,,,,,,,,,,,,,,,,,,,,,,,,,,,028938,001,2025-03-17_15h14.44.897,Estimulo_ICE,2024.2.4,60.0279730356233,2025-03-17 15h14.50.296915 -0300,
Estimulo_11,27,27,0,2.2,-2.2,-2.2,2.2,3.39999999999999,-3.39999999999999,3.39999999999999,-3.39999999999999,0,0,0,3,,,,,,,,,,,,,,,,,,,,,,,,,,,,,,,,,,,,,,,,,0,27,27,10,,,,,0.17035980000036943,,,,,,,,,,,,,,,,,,,,,,,,,,,,,,,,,,,,,,,,,,,,,,,,,028938,001,2025-03-17_15h14.44.897,Estimulo_ICE,2024.2.4,60.0279730356233,2025-03-17 15h14.50.296915 -0300,
Estimulo_11,28,28,0,2.2,-2.2,-2.2,2.2,3.29999999999999,-3.29999999999999,3.29999999999999,-3.29999999999999,0,0,0,3,,,,,,,,,,,,,,,,,,,,,,,,,,,,,,,,,,,,,,,,,0,28,28,11,,,,,0.17035980000036943,,,,,,,,,,,,,,,,,,,,,,,,,,,,,,,,,,,,,,,,,,,,,,,,,028938,001,2025-03-17_15h14.44.897,Estimulo_ICE,2024.2.4,60.0279730356233,2025-03-17 15h14.50.296915 -0300,
Estimulo_11,29,29,0,2.2,-2.2,-2.2,2.2,4.1,-4.1,4.1,-4.1,0,0,0,3,,,,,,,,,,,,,,,,,,,,,,,,,,,,,,,,,,,,,,,,,0,29,29,3,,,,,0.17035980000036943,,,,,,,,,,,,,,,,,,,,,,,,,,,,,,,,,,,,,,,,,,,,,,,,,028938,001,2025-03-17_15h14.44.897,Estimulo_ICE,2024.2.4,60.0279730356233,2025-03-17 15h14.50.296915 -0300,
Estimulo_11,30,30,0,2.2,-2.2,-2.2,2.2,2.09999999999999,-2.09999999999999,2.09999999999999,-2.09999999999999,0,0,0,3,,,,,,,,,,,,,,,,,,,,,,,,,,,,,,,,,,,,,,,,,0,30,30,23,,,,,0.17035980000036943,,,,,,,,,,,,,,,,,,,,,,,,,,,,,,,,,,,,,,,,,,,,,,,,,028938,001,2025-03-17_15h14.44.897,Estimulo_ICE,2024.2.4,60.0279730356233,2025-03-17 15h14.50.296915 -0300,
Estimulo_11,31,31,0,2.2,-2.2,-2.2,2.2,3.6,-3.6,3.6,-3.6,0,0,0,3,,,,,,,,,,,,,,,,,,,,,,,,,,,,,,,,,,,,,,,,,0,31,31,8,,,,,0.17035980000036943,,,,,,,,,,,,,,,,,,,,,,,,,,,,,,,,,,,,,,,,,,,,,,,,,028938,001,2025-03-17_15h14.44.897,Estimulo_ICE,2024.2.4,60.0279730356233,2025-03-17 15h14.50.296915 -0300,
Estimulo_11,32,32,0,2.2,-2.2,-2.2,2.2,3.9,-3.9,3.9,-3.9,0,0,0,3,,,,,,,,,,,,,,,,,,,,,,,,,,,,,,,,,,,,,,,,,0,32,32,5,,,,,0.17035980000036943,,,,,,,,,,,,,,,,,,,,,,,,,,,,,,,,,,,,,,,,,,,,,,,,,028938,001,2025-03-17_15h14.44.897,Estimulo_ICE,2024.2.4,60.0279730356233,2025-03-17 15h14.50.296915 -0300,
Estimulo_11,33,33,0,2.2,-2.2,-2.2,2.2,2.49999999999999,-2.49999999999999,2.49999999999999,-2.49999999999999,0,0,0,3,,,,,,,,,,,,,,,,,,,,,,,,,,,,,,,,,,,,,,,,,0,33,33,19,,,,,0.17035980000036943,,,,,,,,,,,,,,,,,,,,,,,,,,,,,,,,,,,,,,,,,,,,,,,,,028938,001,2025-03-17_15h14.44.897,Estimulo_ICE,2024.2.4,60.0279730356233,2025-03-17 15h14.50.296915 -0300,
Estimulo_11,0,0,0,,,,,,,,,0,0,0,3,,,,,,,,,,,,,,,,,,,,,,,,,,,,,,,,,,,,,,,,,,,,,,,,,,,,,0.15867940000043745,0.17035980000036943,0.5224777000003087,,,,,,,,,,,,,,,,,,,,,,,,,,,,,,,,,,,,,,,,,,,028938,001,2025-03-17_15h14.44.897,Estimulo_ICE,2024.2.4,60.0279730356233,2025-03-17 15h14.50.296915 -0300,
Estimulo_10,0,0,0,3.6,-3.6,3.6,-3.6,2.2,-2.2,-2.2,2.2,0,1,1,2,,,,,,,,,,,,,,,,,,,,,,,,,,,,,,,,,,,,,0,0,0,25,,,,,,,,,0.6702302000003328,,0.5225871000002371,0.5229309000005742,,,,,,,,,,,,,,,,,,,,,,,,,,,,,,,,,,,,,,,,,,,,,,028938,001,2025-03-17_15h14.44.897,Estimulo_ICE,2024.2.4,60.0279730356233,2025-03-17 15h14.50.296915 -0300,
Estimulo_10,1,1,0,4,-4,4,-4,2.2,-2.2,-2.2,2.2,0,1,1,2,,,,,,,,,,,,,,,,,,,,,,,,,,,,,,,,,,,,,0,1,1,29,,,,,,,,,0.6702302000003328,,,,,,,,,,,,,,,,,,,,,,,,,,,,,,,,,,,,,,,,,,,,,,,,,028938,001,2025-03-17_15h14.44.897,Estimulo_ICE,2024.2.4,60.0279730356233,2025-03-17 15h14.50.296915 -0300,
Estimulo_10,2,2,0,1.3,-1.3,1.3,-1.3,2.2,-2.2,-2.2,2.2,0,1,1,2,,,,,,,,,,,,,,,,,,,,,,,,,,,,,,,,,,,,,0,2,2,2,,,,,,,,,0.6702302000003328,,,,,,,,,,,,,,,,,,,,,,,,,,,,,,,,,,,,,,,,,,,,,,,,,028938,001,2025-03-17_15h14.44.897,Estimulo_ICE,2024.2.4,60.0279730356233,2025-03-17 15h14.50.296915 -0300,
Estimulo_10,3,3,0,1.7,-1.7,1.7,-1.7,2.2,-2.2,-2.2,2.2,0,1,1,2,,,,,,,,,,,,,,,,,,,,,,,,,,,,,,,,,,,,,0,3,3,6,,,,,,,,,0.6702302000003328,,,,,,,,,,,,,,,,,,,,,,,,,,,,,,,,,,,,,,,,,,,,,,,,,028938,001,2025-03-17_15h14.44.897,Estimulo_ICE,2024.2.4,60.0279730356233,2025-03-17 15h14.50.296915 -0300,
Estimulo_10,4,4,0,1.1,-1.1,1.1,-1.1,2.2,-2.2,-2.2,2.2,0,1,1,2,,,,,,,,,,,,,,,,,,,,,,,,,,,,,,,,,,,,,0,4,4,0,,,,,,,,,0.6702302000003328,,,,,,,,,,,,,,,,,,,,,,,,,,,,,,,,,,,,,,,,,,,,,,,,,028938,001,2025-03-17_15h14.44.897,Estimulo_ICE,2024.2.4,60.0279730356233,2025-03-17 15h14.50.296915 -0300,
Estimulo_10,5,5,0,3.3,-3.3,3.3,-3.3,2.2,-2.2,-2.2,2.2,0,1,1,2,,,,,,,,,,,,,,,,,,,,,,,,,,,,,,,,,,,,,0,5,5,22,,,,,,,,,0.6702302000003328,,,,,,,,,,,,,,,,,,,,,,,,,,,,,,,,,,,,,,,,,,,,,,,,,028938,001,2025-03-17_15h14.44.897,Estimulo_ICE,2024.2.4,60.0279730356233,2025-03-17 15h14.50.296915 -0300,
Estimulo_10,6,6,0,1.8,-1.8,1.8,-1.8,2.2,-2.2,-2.2,2.2,0,1,1,2,,,,,,,,,,,,,,,,,,,,,,,,,,,,,,,,,,,,,0,6,6,7,,,,,,,,,0.6702302000003328,,,,,,,,,,,,,,,,,,,,,,,,,,,,,,,,,,,,,,,,,,,,,,,,,028938,001,2025-03-17_15h14.44.897,Estimulo_ICE,2024.2.4,60.0279730356233,2025-03-17 15h14.50.296915 -0300,
Estimulo_10,7,7,0,2.3,-2.3,2.3,-2.3,2.2,-2.2,-2.2,2.2,0,1,1,2,,,,,,,,,,,,,,,,,,,,,,,,,,,,,,,,,,,,,0,7,7,12,,,,,,,,,0.6702302000003328,,,,,,,,,,,,,,,,,,,,,,,,,,,,,,,,,,,,,,,,,,,,,,,,,028938,001,2025-03-17_15h14.44.897,Estimulo_ICE,2024.2.4,60.0279730356233,2025-03-17 15h14.50.296915 -0300,
Estimulo_10,8,8,0,2.8,-2.8,2.8,-2.8,2.2,-2.2,-2.2,2.2,0,1,1,2,,,,,,,,,,,,,,,,,,,,,,,,,,,,,,,,,,,,,0,8,8,17,,,,,,,,,0.6702302000003328,,,,,,,,,,,,,,,,,,,,,,,,,,,,,,,,,,,,,,,,,,,,,,,,,028938,001,2025-03-17_15h14.44.897,Estimulo_ICE,2024.2.4,60.0279730356233,2025-03-17 15h14.50.296915 -0300,
Estimulo_10,9,9,0,2.5,-2.5,2.5,-2.5,2.2,-2.2,-2.2,2.2,0,1,1,2,,,,,,,,,,,,,,,,,,,,,,,,,,,,,,,,,,,,,0,9,9,14,,,,,,,,,0.6702302000003328,,,,,,,,,,,,,,,,,,,,,,,,,,,,,,,,,,,,,,,,,,,,,,,,,028938,001,2025-03-17_15h14.44.897,Estimulo_ICE,2024.2.4,60.0279730356233,2025-03-17 15h14.50.296915 -0300,
Estimulo_10,10,10,0,3,-3,3,-3,2.2,-2.2,-2.2,2.2,0,1,1,2,,,,,,,,,,,,,,,,,,,,,,,,,,,,,,,,,,,,,0,10,10,19,,,,,,,,,0.6702302000003328,,,,,,,,,,,,,,,,,,,,,,,,,,,,,,,,,,,,,,,,,,,,,,,,,028938,001,2025-03-17_15h14.44.897,Estimulo_ICE,2024.2.4,60.0279730356233,2025-03-17 15h14.50.296915 -0300,
Estimulo_10,11,11,0,3.4,-3.4,3.4,-3.4,2.2,-2.2,-2.2,2.2,0,1,1,2,,,,,,,,,,,,,,,,,,,,,,,,,,,,,,,,,,,,,0,11,11,23,,,,,,,,,0.6702302000003328,,,,,,,,,,,,,,,,,,,,,,,,,,,,,,,,,,,,,,,,,,,,,,,,,028938,001,2025-03-17_15h14.44.897,Estimulo_ICE,2024.2.4,60.0279730356233,2025-03-17 15h14.50.296915 -0300,
Estimulo_10,12,12,0,2.9,-2.9,2.9,-2.9,2.2,-2.2,-2.2,2.2,0,1,1,2,,,,,,,,,,,,,,,,,,,,,,,,,,,,,,,,,,,,,0,12,12,18,,,,,,,,,0.6702302000003328,,,,,,,,,,,,,,,,,,,,,,,,,,,,,,,,,,,,,,,,,,,,,,,,,028938,001,2025-03-17_15h14.44.897,Estimulo_ICE,2024.2.4,60.0279730356233,2025-03-17 15h14.50.296915 -0300,
Estimulo_10,13,13,0,3.1,-3.1,3.1,-3.1,2.2,-2.2,-2.2,2.2,0,1,1,2,,,,,,,,,,,,,,,,,,,,,,,,,,,,,,,,,,,,,0,13,13,20,,,,,,,,,0.6702302000003328,,,,,,,,,,,,,,,,,,,,,,,,,,,,,,,,,,,,,,,,,,,,,,,,,028938,001,2025-03-17_15h14.44.897,Estimulo_ICE,2024.2.4,60.0279730356233,2025-03-17 15h14.50.296915 -0300,
Estimulo_10,14,14,0,3.5,-3.5,3.5,-3.5,2.2,-2.2,-2.2,2.2,0,1,1,2,,,,,,,,,,,,,,,,,,,,,,,,,,,,,,,,,,,,,0,14,14,24,,,,,,,,,0.6702302000003328,,,,,,,,,,,,,,,,,,,,,,,,,,,,,,,,,,,,,,,,,,,,,,,,,028938,001,2025-03-17_15h14.44.897,Estimulo_ICE,2024.2.4,60.0279730356233,2025-03-17 15h14.50.296915 -0300,
Estimulo_10,15,15,0,3.2,-3.2,3.2,-3.2,2.2,-2.2,-2.2,2.2,0,1,1,2,,,,,,,,,,,,,,,,,,,,,,,,,,,,,,,,,,,,,0,15,15,21,,,,,,,,,0.6702302000003328,,,,,,,,,,,,,,,,,,,,,,,,,,,,,,,,,,,,,,,,,,,,,,,,,028938,001,2025-03-17_15h14.44.897,Estimulo_ICE,2024.2.4,60.0279730356233,2025-03-17 15h14.50.296915 -0300,
Estimulo_10,16,16,0,2.7,-2.7,2.7,-2.7,2.2,-2.2,-2.2,2.2,0,1,1,2,,,,,,,,,,,,,,,,,,,,,,,,,,,,,,,,,,,,,0,16,16,16,,,,,,,,,0.6702302000003328,,,,,,,,,,,,,,,,,,,,,,,,,,,,,,,,,,,,,,,,,,,,,,,,,028938,001,2025-03-17_15h14.44.897,Estimulo_ICE,2024.2.4,60.0279730356233,2025-03-17 15h14.50.296915 -0300,
Estimulo_10,17,17,0,3.7,-3.7,3.7,-3.7,2.2,-2.2,-2.2,2.2,0,1,1,2,,,,,,,,,,,,,,,,,,,,,,,,,,,,,,,,,,,,,0,17,17,26,,,,,,,,,0.6702302000003328,,,,,,,,,,,,,,,,,,,,,,,,,,,,,,,,,,,,,,,,,,,,,,,,,028938,001,2025-03-17_15h14.44.897,Estimulo_ICE,2024.2.4,60.0279730356233,2025-03-17 15h14.50.296915 -0300,
Estimulo_10,18,18,0,4.2,-4.2,4.2,-4.2,2.2,-2.2,-2.2,2.2,0,1,1,2,,,,,,,,,,,,,,,,,,,,,,,,,,,,,,,,,,,,,0,18,18,31,,,,,,,,,0.6702302000003328,,,,,,,,,,,,,,,,,,,,,,,,,,,,,,,,,,,,,,,,,,,,,,,,,028938,001,2025-03-17_15h14.44.897,Estimulo_ICE,2024.2.4,60.0279730356233,2025-03-17 15h14.50.296915 -0300,
Estimulo_10,19,19,0,4.1,-4.1,4.1,-4.1,2.2,-2.2,-2.2,2.2,0,1,1,2,,,,,,,,,,,,,,,,,,,,,,,,,,,,,,,,,,,,,0,19,19,30,,,,,,,,,0.6702302000003328,,,,,,,,,,,,,,,,,,,,,,,,,,,,,,,,,,,,,,,,,,,,,,,,,028938,001,2025-03-17_15h14.44.897,Estimulo_ICE,2024.2.4,60.0279730356233,2025-03-17 15h14.50.296915 -0300,
Estimulo_10,20,20,0,3.9,-3.9,3.9,-3.9,2.2,-2.2,-2.2,2.2,0,1,1,2,,,,,,,,,,,,,,,,,,,,,,,,,,,,,,,,,,,,,0,20,20,28,,,,,,,,,0.6702302000003328,,,,,,,,,,,,,,,,,,,,,,,,,,,,,,,,,,,,,,,,,,,,,,,,,028938,001,2025-03-17_15h14.44.897,Estimulo_ICE,2024.2.4,60.0279730356233,2025-03-17 15h14.50.296915 -0300,
Estimulo_10,21,21,0,3.8,-3.8,3.8,-3.8,2.2,-2.2,-2.2,2.2,0,1,1,2,,,,,,,,,,,,,,,,,,,,,,,,,,,,,,,,,,,,,0,21,21,27,,,,,,,,,0.6702302000003328,,,,,,,,,,,,,,,,,,,,,,,,,,,,,,,,,,,,,,,,,,,,,,,,,028938,001,2025-03-17_15h14.44.897,Estimulo_ICE,2024.2.4,60.0279730356233,2025-03-17 15h14.50.296915 -0300,
Estimulo_10,22,22,0,1.5,-1.5,1.5,-1.5,2.2,-2.2,-2.2,2.2,0,1,1,2,,,,,,,,,,,,,,,,,,,,,,,,,,,,,,,,,,,,,0,22,22,4,,,,,,,,,0.6702302000003328,,,,,,,,,,,,,,,,,,,,,,,,,,,,,,,,,,,,,,,,,,,,,,,,,028938,001,2025-03-17_15h14.44.897,Estimulo_ICE,2024.2.4,60.0279730356233,2025-03-17 15h14.50.296915 -0300,
Estimulo_10,23,23,0,2,-2,2,-2,2.2,-2.2,-2.2,2.2,0,1,1,2,,,,,,,,,,,,,,,,,,,,,,,,,,,,,,,,,,,,,0,23,23,9,,,,,,,,,0.6702302000003328,,,,,,,,,,,,,,,,,,,,,,,,,,,,,,,,,,,,,,,,,,,,,,,,,028938,001,2025-03-17_15h14.44.897,Estimulo_ICE,2024.2.4,60.0279730356233,2025-03-17 15h14.50.296915 -0300,
Estimulo_10,24,24,0,4.3,-4.3,4.3,-4.3,2.2,-2.2,-2.2,2.2,0,1,1,2,,,,,,,,,,,,,,,,,,,,,,,,,,,,,,,,,,,,,0,24,24,32,,,,,,,,,0.6702302000003328,,,,,,,,,,,,,,,,,,,,,,,,,,,,,,,,,,,,,,,,,,,,,,,,,028938,001,2025-03-17_15h14.44.897,Estimulo_ICE,2024.2.4,60.0279730356233,2025-03-17 15h14.50.296915 -0300,
Estimulo_10,25,25,0,2.6,-2.6,2.6,-2.6,2.2,-2.2,-2.2,2.2,0,1,1,2,,,,,,,,,,,,,,,,,,,,,,,,,,,,,,,,,,,,,0,25,25,15,,,,,,,,,0.6702302000003328,,,,,,,,,,,,,,,,,,,,,,,,,,,,,,,,,,,,,,,,,,,,,,,,,028938,001,2025-03-17_15h14.44.897,Estimulo_ICE,2024.2.4,60.0279730356233,2025-03-17 15h14.50.296915 -0300,
Estimulo_10,26,26,0,2.1,-2.1,2.1,-2.1,2.2,-2.2,-2.2,2.2,0,1,1,2,,,,,,,,,,,,,,,,,,,,,,,,,,,,,,,,,,,,,0,26,26,10,,,,,,,,,0.6702302000003328,,,,,,,,,,,,,,,,,,,,,,,,,,,,,,,,,,,,,,,,,,,,,,,,,028938,001,2025-03-17_15h14.44.897,Estimulo_ICE,2024.2.4,60.0279730356233,2025-03-17 15h14.50.296915 -0300,
Estimulo_10,27,27,0,1.2,-1.2,1.2,-1.2,2.2,-2.2,-2.2,2.2,0,1,1,2,,,,,,,,,,,,,,,,,,,,,,,,,,,,,,,,,,,,,0,27,27,1,,,,,,,,,0.6702302000003328,,,,,,,,,,,,,,,,,,,,,,,,,,,,,,,,,,,,,,,,,,,,,,,,,028938,001,2025-03-17_15h14.44.897,Estimulo_ICE,2024.2.4,60.0279730356233,2025-03-17 15h14.50.296915 -0300,
Estimulo_10,28,28,0,2.4,-2.4,2.4,-2.4,2.2,-2.2,-2.2,2.2,0,1,1,2,,,,,,,,,,,,,,,,,,,,,,,,,,,,,,,,,,,,,0,28,28,13,,,,,,,,,0.6702302000003328,,,,,,,,,,,,,,,,,,,,,,,,,,,,,,,,,,,,,,,,,,,,,,,,,028938,001,2025-03-17_15h14.44.897,Estimulo_ICE,2024.2.4,60.0279730356233,2025-03-17 15h14.50.296915 -0300,
Estimulo_10,29,29,0,2.2,-2.2,2.2,-2.2,2.2,-2.2,-2.2,2.2,0,1,1,2,,,,,,,,,,,,,,,,,,,,,,,,,,,,,,,,,,,,,0,29,29,11,,,,,,,,,0.6702302000003328,,,,,,,,,,,,,,,,,,,,,,,,,,,,,,,,,,,,,,,,,,,,,,,,,028938,001,2025-03-17_15h14.44.897,Estimulo_ICE,2024.2.4,60.0279730356233,2025-03-17 15h14.50.296915 -0300,
Estimulo_10,30,30,0,1.6,-1.6,1.6,-1.6,2.2,-2.2,-2.2,2.2,0,1,1,2,,,,,,,,,,,,,,,,,,,,,,,,,,,,,,,,,,,,,0,30,30,5,,,,,,,,,0.6702302000003328,,,,,,,,,,,,,,,,,,,,,,,,,,,,,,,,,,,,,,,,,,,,,,,,,028938,001,2025-03-17_15h14.44.897,Estimulo_ICE,2024.2.4,60.0279730356233,2025-03-17 15h14.50.296915 -0300,
Estimulo_10,31,31,0,1.9,-1.9,1.9,-1.9,2.2,-2.2,-2.2,2.2,0,1,1,2,,,,,,,,,,,,,,,,,,,,,,,,,,,,,,,,,,,,,0,31,31,8,,,,,,,,,0.6702302000003328,,,,,,,,,,,,,,,,,,,,,,,,,,,,,,,,,,,,,,,,,,,,,,,,,028938,001,2025-03-17_15h14.44.897,Estimulo_ICE,2024.2.4,60.0279730356233,2025-03-17 15h14.50.296915 -0300,
Estimulo_10,32,32,0,1.4,-1.4,1.4,-1.4,2.2,-2.2,-2.2,2.2,0,1,1,2,,,,,,,,,,,,,,,,,,,,,,,,,,,,,,,,,,,,,0,32,32,3,,,,,,,,,0.6702302000003328,,,,,,,,,,,,,,,,,,,,,,,,,,,,,,,,,,,,,,,,,,,,,,,,,028938,001,2025-03-17_15h14.44.897,Estimulo_ICE,2024.2.4,60.0279730356233,2025-03-17 15h14.50.296915 -0300,
Estimulo_10,33,33,0,4.4,-4.4,4.4,-4.4,2.2,-2.2,-2.2,2.2,0,1,1,2,,,,,,,,,,,,,,,,,,,,,,,,,,,,,,,,,,,,,0,33,33,33,,,,,,,,,0.6702302000003328,,,,,,,,,,,,,,,,,,,,,,,,,,,,,,,,,,,,,,,,,,,,,,,,,028938,001,2025-03-17_15h14.44.897,Estimulo_ICE,2024.2.4,60.0279730356233,2025-03-17 15h14.50.296915 -0300,
Estimulo_10,1,1,0,,,,,,,,,0,1,1,2,,,,,,,,,,,,,,,,,,,,,,,,,,,,,,,,,,,,,,,,,,,,,,,,,,,,,0.6592058000005636,0.6702302000003328,1.039116599999943,,,,,,,,,,,,,,,,,,,,,,,,,,,,,,,,,,,,,,,,,,,028938,001,2025-03-17_15h14.44.897,Estimulo_ICE,2024.2.4,60.0279730356233,2025-03-17 15h14.50.296915 -0300,
Estimulo_12,0,0,0,2.2,-2.2,-2.2,2.2,2.89999999999998,-2.89999999999998,2.89999999999998,-2.89999999999998,0,2,2,4,,,,,,,,,,,,,,,,,,,,,,,,,,,,,,,,,,,,,,,,,,,,,0,0,0,18,1.1863723000005848,,1.0392231000005268,1.039574100000209,,,,,,,,,,,,,,,,,,,,,,,,,,,,,,,,,,,,,,,,,,,,,,028938,001,2025-03-17_15h14.44.897,Estimulo_ICE,2024.2.4,60.0279730356233,2025-03-17 15h14.50.296915 -0300,
Estimulo_12,1,1,0,2.2,-2.2,-2.2,2.2,1.79999999999998,-1.79999999999998,1.79999999999998,-1.79999999999998,0,2,2,4,,,,,,,,,,,,,,,,,,,,,,,,,,,,,,,,,,,,,,,,,,,,,0,1,1,7,1.1863723000005848,,,,,,,,,,,,,,,,,,,,,,,,,,,,,,,,,,,,,,,,,,,,,,,,,028938,001,2025-03-17_15h14.44.897,Estimulo_ICE,2024.2.4,60.0279730356233,2025-03-17 15h14.50.296915 -0300,
Estimulo_12,2,2,0,2.2,-2.2,-2.2,2.2,2.79999999999998,-2.79999999999998,2.79999999999998,-2.79999999999998,0,2,2,4,,,,,,,,,,,,,,,,,,,,,,,,,,,,,,,,,,,,,,,,,,,,,0,2,2,17,1.1863723000005848,,,,,,,,,,,,,,,,,,,,,,,,,,,,,,,,,,,,,,,,,,,,,,,,,028938,001,2025-03-17_15h14.44.897,Estimulo_ICE,2024.2.4,60.0279730356233,2025-03-17 15h14.50.296915 -0300,
Estimulo_12,3,3,0,2.2,-2.2,-2.2,2.2,4.19999999999998,-4.19999999999998,4.19999999999998,-4.19999999999998,0,2,2,4,,,,,,,,,,,,,,,,,,,,,,,,,,,,,,,,,,,,,,,,,,,,,0,3,3,31,1.1863723000005848,,,,,,,,,,,,,,,,,,,,,,,,,,,,,,,,,,,,,,,,,,,,,,,,,028938,001,2025-03-17_15h14.44.897,Estimulo_ICE,2024.2.4,60.0279730356233,2025-03-17 15h14.50.296915 -0300,
Estimulo_12,4,4,0,2.2,-2.2,-2.2,2.2,2.09999999999998,-2.09999999999998,2.09999999999998,-2.09999999999998,0,2,2,4,,,,,,,,,,,,,,,,,,,,,,,,,,,,,,,,,,,,,,,,,,,,,0,4,4,10,1.1863723000005848,,,,,,,,,,,,,,,,,,,,,,,,,,,,,,,,,,,,,,,,,,,,,,,,,028938,001,2025-03-17_15h14.44.897,Estimulo_ICE,2024.2.4,60.0279730356233,2025-03-17 15h14.50.296915 -0300,
Estimulo_12,5,5,0,2.2,-2.2,-2.2,2.2,1.49999999999998,-1.49999999999998,1.49999999999998,-1.49999999999998,0,2,2,4,,,,,,,,,,,,,,,,,,,,,,,,,,,,,,,,,,,,,,,,,,,,,0,5,5,4,1.1863723000005848,,,,,,,,,,,,,,,,,,,,,,,,,,,,,,,,,,,,,,,,,,,,,,,,,028938,001,2025-03-17_15h14.44.897,Estimulo_ICE,2024.2.4,60.0279730356233,2025-03-17 15h14.50.296915 -0300,
Estimulo_12,6,6,0,2.2,-2.2,-2.2,2.2,4.29999999999998,-4.29999999999998,4.29999999999998,-4.29999999999998,0,2,2,4,,,,,,,,,,,,,,,,,,,,,,,,,,,,,,,,,,,,,,,,,,,,,0,6,6,32,1.1863723000005848,,,,,,,,,,,,,,,,,,,,,,,,,,,,,,,,,,,,,,,,,,,,,,,,,028938,001,2025-03-17_15h14.44.897,Estimulo_ICE,2024.2.4,60.0279730356233,2025-03-17 15h14.50.296915 -0300,
Estimulo_12,7,7,0,2.2,-2.2,-2.2,2.2,3.99999999999998,-3.99999999999998,3.99999999999998,-3.99999999999998,0,2,2,4,,,,,,,,,,,,,,,,,,,,,,,,,,,,,,,,,,,,,,,,,,,,,0,7,7,29,1.1863723000005848,,,,,,,,,,,,,,,,,,,,,,,,,,,,,,,,,,,,,,,,,,,,,,,,,028938,001,2025-03-17_15h14.44.897,Estimulo_ICE,2024.2.4,60.0279730356233,2025-03-17 15h14.50.296915 -0300,
Estimulo_12,8,8,0,2.2,-2.2,-2.2,2.2,3.89999999999998,-3.89999999999998,3.89999999999998,-3.89999999999998,0,2,2,4,,,,,,,,,,,,,,,,,,,,,,,,,,,,,,,,,,,,,,,,,,,,,0,8,8,28,1.1863723000005848,,,,,,,,,,,,,,,,,,,,,,,,,,,,,,,,,,,,,,,,,,,,,,,,,028938,001,2025-03-17_15h14.44.897,Estimulo_ICE,2024.2.4,60.0279730356233,2025-03-17 15h14.50.296915 -0300,
Estimulo_12,9,9,0,2.2,-2.2,-2.2,2.2,1.29999999999998,-1.29999999999998,1.29999999999998,-1.29999999999998,0,2,2,4,,,,,,,,,,,,,,,,,,,,,,,,,,,,,,,,,,,,,,,,,,,,,0,9,9,2,1.1863723000005848,,,,,,,,,,,,,,,,,,,,,,,,,,,,,,,,,,,,,,,,,,,,,,,,,028938,001,2025-03-17_15h14.44.897,Estimulo_ICE,2024.2.4,60.0279730356233,2025-03-17 15h14.50.296915 -0300,
Estimulo_12,10,10,0,2.2,-2.2,-2.2,2.2,3.69999999999998,-3.69999999999998,3.69999999999998,-3.69999999999998,0,2,2,4,,,,,,,,,,,,,,,,,,,,,,,,,,,,,,,,,,,,,,,,,,,,,0,10,10,26,1.1863723000005848,,,,,,,,,,,,,,,,,,,,,,,,,,,,,,,,,,,,,,,,,,,,,,,,,028938,001,2025-03-17_15h14.44.897,Estimulo_ICE,2024.2.4,60.0279730356233,2025-03-17 15h14.50.296915 -0300,
Estimulo_12,11,11,0,2.2,-2.2,-2.2,2.2,3.19999999999998,-3.19999999999998,3.19999999999998,-3.19999999999998,0,2,2,4,,,,,,,,,,,,,,,,,,,,,,,,,,,,,,,,,,,,,,,,,,,,,0,11,11,21,1.1863723000005848,,,,,,,,,,,,,,,,,,,,,,,,,,,,,,,,,,,,,,,,,,,,,,,,,028938,001,2025-03-17_15h14.44.897,Estimulo_ICE,2024.2.4,60.0279730356233,2025-03-17 15h14.50.296915 -0300,
Estimulo_12,12,12,0,2.2,-2.2,-2.2,2.2,1.59999999999998,-1.59999999999998,1.59999999999998,-1.59999999999998,0,2,2,4,,,,,,,,,,,,,,,,,,,,,,,,,,,,,,,,,,,,,,,,,,,,,0,12,12,5,1.1863723000005848,,,,,,,,,,,,,,,,,,,,,,,,,,,,,,,,,,,,,,,,,,,,,,,,,028938,001,2025-03-17_15h14.44.897,Estimulo_ICE,2024.2.4,60.0279730356233,2025-03-17 15h14.50.296915 -0300,
Estimulo_12,13,13,0,2.2,-2.2,-2.2,2.2,3.29999999999998,-3.29999999999998,3.29999999999998,-3.29999999999998,0,2,2,4,,,,,,,,,,,,,,,,,,,,,,,,,,,,,,,,,,,,,,,,,,,,,0,13,13,22,1.1863723000005848,,,,,,,,,,,,,,,,,,,,,,,,,,,,,,,,,,,,,,,,,,,,,,,,,028938,001,2025-03-17_15h14.44.897,Estimulo_ICE,2024.2.4,60.0279730356233,2025-03-17 15h14.50.296915 -0300,
Estimulo_12,14,14,0,2.2,-2.2,-2.2,2.2,4.09999999999998,-4.09999999999998,4.09999999999998,-4.09999999999998,0,2,2,4,,,,,,,,,,,,,,,,,,,,,,,,,,,,,,,,,,,,,,,,,,,,,0,14,14,30,1.1863723000005848,,,,,,,,,,,,,,,,,,,,,,,,,,,,,,,,,,,,,,,,,,,,,,,,,028938,001,2025-03-17_15h14.44.897,Estimulo_ICE,2024.2.4,60.0279730356233,2025-03-17 15h14.50.296915 -0300,
Estimulo_12,15,15,0,2.2,-2.2,-2.2,2.2,1.99999999999998,-1.99999999999998,1.99999999999998,-1.99999999999998,0,2,2,4,,,,,,,,,,,,,,,,,,,,,,,,,,,,,,,,,,,,,,,,,,,,,0,15,15,9,1.1863723000005848,,,,,,,,,,,,,,,,,,,,,,,,,,,,,,,,,,,,,,,,,,,,,,,,,028938,001,2025-03-17_15h14.44.897,Estimulo_ICE,2024.2.4,60.0279730356233,2025-03-17 15h14.50.296915 -0300,
Estimulo_12,16,16,0,2.2,-2.2,-2.2,2.2,3.79999999999998,-3.79999999999998,3.79999999999998,-3.79999999999998,0,2,2,4,,,,,,,,,,,,,,,,,,,,,,,,,,,,,,,,,,,,,,,,,,,,,0,16,16,27,1.1863723000005848,,,,,,,,,,,,,,,,,,,,,,,,,,,,,,,,,,,,,,,,,,,,,,,,,028938,001,2025-03-17_15h14.44.897,Estimulo_ICE,2024.2.4,60.0279730356233,2025-03-17 15h14.50.296915 -0300,
Estimulo_12,17,17,0,2.2,-2.2,-2.2,2.2,3.09999999999998,-3.09999999999998,3.09999999999998,-3.09999999999998,0,2,2,4,,,,,,,,,,,,,,,,,,,,,,,,,,,,,,,,,,,,,,,,,,,,,0,17,17,20,1.1863723000005848,,,,,,,,,,,,,,,,,,,,,,,,,,,,,,,,,,,,,,,,,,,,,,,,,028938,001,2025-03-17_15h14.44.897,Estimulo_ICE,2024.2.4,60.0279730356233,2025-03-17 15h14.50.296915 -0300,
Estimulo_12,18,18,0,2.2,-2.2,-2.2,2.2,2.39999999999998,-2.39999999999998,2.39999999999998,-2.39999999999998,0,2,2,4,,,,,,,,,,,,,,,,,,,,,,,,,,,,,,,,,,,,,,,,,,,,,0,18,18,13,1.1863723000005848,,,,,,,,,,,,,,,,,,,,,,,,,,,,,,,,,,,,,,,,,,,,,,,,,028938,001,2025-03-17_15h14.44.897,Estimulo_ICE,2024.2.4,60.0279730356233,2025-03-17 15h14.50.296915 -0300,
Estimulo_12,19,19,0,2.2,-2.2,-2.2,2.2,2.49999999999998,-2.49999999999998,2.49999999999998,-2.49999999999998,0,2,2,4,,,,,,,,,,,,,,,,,,,,,,,,,,,,,,,,,,,,,,,,,,,,,0,19,19,14,1.1863723000005848,,,,,,,,,,,,,,,,,,,,,,,,,,,,,,,,,,,,,,,,,,,,,,,,,028938,001,2025-03-17_15h14.44.897,Estimulo_ICE,2024.2.4,60.0279730356233,2025-03-17 15h14.50.296915 -0300,
Estimulo_12,20,20,0,2.2,-2.2,-2.2,2.2,1.89999999999998,-1.89999999999998,1.89999999999998,-1.89999999999998,0,2,2,4,,,,,,,,,,,,,,,,,,,,,,,,,,,,,,,,,,,,,,,,,,,,,0,20,20,8,1.1863723000005848,,,,,,,,,,,,,,,,,,,,,,,,,,,,,,,,,,,,,,,,,,,,,,,,,028938,001,2025-03-17_15h14.44.897,Estimulo_ICE,2024.2.4,60.0279730356233,2025-03-17 15h14.50.296915 -0300,
Estimulo_12,21,21,0,2.2,-2.2,-2.2,2.2,2.69999999999998,-2.69999999999998,2.69999999999998,-2.69999999999998,0,2,2,4,,,,,,,,,,,,,,,,,,,,,,,,,,,,,,,,,,,,,,,,,,,,,0,21,21,16,1.1863723000005848,,,,,,,,,,,,,,,,,,,,,,,,,,,,,,,,,,,,,,,,,,,,,,,,,028938,001,2025-03-17_15h14.44.897,Estimulo_ICE,2024.2.4,60.0279730356233,2025-03-17 15h14.50.296915 -0300,
Estimulo_12,22,22,0,2.2,-2.2,-2.2,2.2,2.99999999999998,-2.99999999999998,2.99999999999998,-2.99999999999998,0,2,2,4,,,,,,,,,,,,,,,,,,,,,,,,,,,,,,,,,,,,,,,,,,,,,0,22,22,19,1.1863723000005848,,,,,,,,,,,,,,,,,,,,,,,,,,,,,,,,,,,,,,,,,,,,,,,,,028938,001,2025-03-17_15h14.44.897,Estimulo_ICE,2024.2.4,60.0279730356233,2025-03-17 15h14.50.296915 -0300,
Estimulo_12,23,23,0,2.2,-2.2,-2.2,2.2,1.09999999999998,-1.09999999999998,1.09999999999998,-1.09999999999998,0,2,2,4,,,,,,,,,,,,,,,,,,,,,,,,,,,,,,,,,,,,,,,,,,,,,0,23,23,0,1.1863723000005848,,,,,,,,,,,,,,,,,,,,,,,,,,,,,,,,,,,,,,,,,,,,,,,,,028938,001,2025-03-17_15h14.44.897,Estimulo_ICE,2024.2.4,60.0279730356233,2025-03-17 15h14.50.296915 -0300,
Estimulo_12,24,24,0,2.2,-2.2,-2.2,2.2,3.49999999999998,-3.49999999999998,3.49999999999998,-3.49999999999998,0,2,2,4,,,,,,,,,,,,,,,,,,,,,,,,,,,,,,,,,,,,,,,,,,,,,0,24,24,24,1.1863723000005848,,,,,,,,,,,,,,,,,,,,,,,,,,,,,,,,,,,,,,,,,,,,,,,,,028938,001,2025-03-17_15h14.44.897,Estimulo_ICE,2024.2.4,60.0279730356233,2025-03-17 15h14.50.296915 -0300,
Estimulo_12,25,25,0,2.2,-2.2,-2.2,2.2,3.39999999999998,-3.39999999999998,3.39999999999998,-3.39999999999998,0,2,2,4,,,,,,,,,,,,,,,,,,,,,,,,,,,,,,,,,,,,,,,,,,,,,0,25,25,23,1.1863723000005848,,,,,,,,,,,,,,,,,,,,,,,,,,,,,,,,,,,,,,,,,,,,,,,,,028938,001,2025-03-17_15h14.44.897,Estimulo_ICE,2024.2.4,60.0279730356233,2025-03-17 15h14.50.296915 -0300,
Estimulo_12,26,26,0,2.2,-2.2,-2.2,2.2,1.69999999999998,-1.69999999999998,1.69999999999998,-1.69999999999998,0,2,2,4,,,,,,,,,,,,,,,,,,,,,,,,,,,,,,,,,,,,,,,,,,,,,0,26,26,6,1.1863723000005848,,,,,,,,,,,,,,,,,,,,,,,,,,,,,,,,,,,,,,,,,,,,,,,,,028938,001,2025-03-17_15h14.44.897,Estimulo_ICE,2024.2.4,60.0279730356233,2025-03-17 15h14.50.296915 -0300,
Estimulo_12,27,27,0,2.2,-2.2,-2.2,2.2,2.59999999999998,-2.59999999999998,2.59999999999998,-2.59999999999998,0,2,2,4,,,,,,,,,,,,,,,,,,,,,,,,,,,,,,,,,,,,,,,,,,,,,0,27,27,15,1.1863723000005848,,,,,,,,,,,,,,,,,,,,,,,,,,,,,,,,,,,,,,,,,,,,,,,,,028938,001,2025-03-17_15h14.44.897,Estimulo_ICE,2024.2.4,60.0279730356233,2025-03-17 15h14.50.296915 -0300,
Estimulo_12,28,28,0,2.2,-2.2,-2.2,2.2,1.39999999999998,-1.39999999999998,1.39999999999998,-1.39999999999998,0,2,2,4,,,,,,,,,,,,,,,,,,,,,,,,,,,,,,,,,,,,,,,,,,,,,0,28,28,3,1.1863723000005848,,,,,,,,,,,,,,,,,,,,,,,,,,,,,,,,,,,,,,,,,,,,,,,,,028938,001,2025-03-17_15h14.44.897,Estimulo_ICE,2024.2.4,60.0279730356233,2025-03-17 15h14.50.296915 -0300,
Estimulo_12,29,29,0,2.2,-2.2,-2.2,2.2,2.19999999999998,-2.19999999999998,2.19999999999998,-2.19999999999998,0,2,2,4,,,,,,,,,,,,,,,,,,,,,,,,,,,,,,,,,,,,,,,,,,,,,0,29,29,11,1.1863723000005848,,,,,,,,,,,,,,,,,,,,,,,,,,,,,,,,,,,,,,,,,,,,,,,,,028938,001,2025-03-17_15h14.44.897,Estimulo_ICE,2024.2.4,60.0279730356233,2025-03-17 15h14.50.296915 -0300,
Estimulo_12,30,30,0,2.2,-2.2,-2.2,2.2,1.19999999999998,-1.19999999999998,1.19999999999998,-1.19999999999998,0,2,2,4,,,,,,,,,,,,,,,,,,,,,,,,,,,,,,,,,,,,,,,,,,,,,0,30,30,1,1.1863723000005848,,,,,,,,,,,,,,,,,,,,,,,,,,,,,,,,,,,,,,,,,,,,,,,,,028938,001,2025-03-17_15h14.44.897,Estimulo_ICE,2024.2.4,60.0279730356233,2025-03-17 15h14.50.296915 -0300,
Estimulo_12,31,31,0,2.2,-2.2,-2.2,2.2,4.39999999999998,-4.39999999999998,4.39999999999998,-4.39999999999998,0,2,2,4,,,,,,,,,,,,,,,,,,,,,,,,,,,,,,,,,,,,,,,,,,,,,0,31,31,33,1.1863723000005848,,,,,,,,,,,,,,,,,,,,,,,,,,,,,,,,,,,,,,,,,,,,,,,,,028938,001,2025-03-17_15h14.44.897,Estimulo_ICE,2024.2.4,60.0279730356233,2025-03-17 15h14.50.296915 -0300,
Estimulo_12,32,32,0,2.2,-2.2,-2.2,2.2,2.29999999999998,-2.29999999999998,2.29999999999998,-2.29999999999998,0,2,2,4,,,,,,,,,,,,,,,,,,,,,,,,,,,,,,,,,,,,,,,,,,,,,0,32,32,12,1.1863723000005848,,,,,,,,,,,,,,,,,,,,,,,,,,,,,,,,,,,,,,,,,,,,,,,,,028938,001,2025-03-17_15h14.44.897,Estimulo_ICE,2024.2.4,60.0279730356233,2025-03-17 15h14.50.296915 -0300,
Estimulo_12,33,33,0,2.2,-2.2,-2.2,2.2,3.59999999999998,-3.59999999999998,3.59999999999998,-3.59999999999998,0,2,2,4,,,,,,,,,,,,,,,,,,,,,,,,,,,,,,,,,,,,,,,,,,,,,0,33,33,25,1.1863723000005848,,,,,,,,,,,,,,,,,,,,,,,,,,,,,,,,,,,,,,,,,,,,,,,,,028938,001,2025-03-17_15h14.44.897,Estimulo_ICE,2024.2.4,60.0279730356233,2025-03-17 15h14.50.296915 -0300,
Estimulo_12,2,2,0,,,,,,,,,0,2,2,4,,,,,,,,,,,,,,,,,,,,,,,,,,,,,,,,,,,,,,,,,,,,,,,,,,,,,1.1758680000002641,1.1863723000005848,1.5558068999998795,,,,,,,,,,,,,,,,,,,,,,,,,,,,,,,,,,,,,,,,,,,028938,001,2025-03-17_15h14.44.897,Estimulo_ICE,2024.2.4,60.0279730356233,2025-03-17 15h14.50.296915 -0300,
Estimulo_1,0,0,0,4.4,-4.4,4.4,-4.4,2.2,-2.2,-2.2,2.2,0,3,3,0,0,0,0,0,,,,,,,,,,,,,,,,,,,,,,,,,,,,,,,,,,,,,,,,,,,,,1.5861586999999417,,1.5559125999998287,1.5562549000005674,,,,1.5675204999997732,1.5861586999999417,1.5861586999999417,1.5861586999999417,1.872428000000582,1.8726436000006288,1.8867094000006546,1.8867094000006546,1.8867094000006546,2.1725357000004806,,,,,,,,,,,,,,,,,,,,,,,,,,,,,,,,,028938,001,2025-03-17_15h14.44.897,Estimulo_ICE,2024.2.4,60.0279730356233,2025-03-17 15h14.50.296915 -0300,
Estimulo_1,1,1,0,4.3,-4.3,4.3,-4.3,2.2,-2.2,-2.2,2.2,0,3,3,0,0,1,1,1,,,,,,,,,,,,,,,,,,,,,,,,,,,,,,,,,,,,,,,,,,,,,2.18687460000001,,,,,,,2.1728823000003104,2.18687460000001,2.18687460000001,2.18687460000001,2.4723493999999846,2.472585800000161,2.4869674000001396,2.4869674000001396,2.4869674000001396,2.772445300000072,,,,,,,,,,,,,,,,,,,,,,,,,,,,,,,,,028938,001,2025-03-17_15h14.44.897,Estimulo_ICE,2024.2.4,60.0279730356233,2025-03-17 15h14.50.296915 -0300,
Estimulo_1,2,2,0,4.2,-4.2,4.2,-4.2,2.2,-2.2,-2.2,2.2,0,3,3,0,0,2,2,2,,,,,,,,,,,,,,,,,,,,,,,,,,,,,,,,,,,,,,,,,,,,,2.7868115999999645,,,,,,,2.772791400000642,2.7868115999999645,2.7868115999999645,2.7868115999999645,3.072453800000403,3.072693199999776,3.0867738000006284,3.0867738000006284,3.0867738000006284,3.372480099999848,,,,,,,,,,,,,,,,,,,,,,,,,,,,,,,,,028938,001,2025-03-17_15h14.44.897,Estimulo_ICE,2024.2.4,60.0279730356233,2025-03-17 15h14.50.296915 -0300,
Estimulo_1,3,3,0,4.1,-4.1,4.1,-4.1,2.2,-2.2,-2.2,2.2,0,3,3,0,0,3,3,3,,,,,,,,,,,,,,,,,,,,,,,,,,,,,,,,,,,,,,,,,,,,,3.38676470000064,,,,,,,3.372828500000651,3.38676470000064,3.38676470000064,3.38676470000064,3.672551900000144,3.672788500000024,3.6869001000004573,3.6869001000004573,3.6869001000004573,3.972549300000537,,,,,,,,,,,,,,,,,,,,,,,,,,,,,,,,,028938,001,2025-03-17_15h14.44.897,Estimulo_ICE,2024.2.4,60.0279730356233,2025-03-17 15h14.50.296915 -0300,
Estimulo_1,4,4,0,4,-4,4,-4,2.2,-2.2,-2.2,2.2,0,3,3,0,0,4,4,4,,,,,,,,,,,,,,,,,,,,,,,,,,,,,,,,,,,,,,,,,,,,,3.986875399999917,,,,,,,3.972898900000473,3.986875399999917,3.986875399999917,3.986875399999917,4.272277800000666,4.272518700000546,4.286855000000287,4.286855000000287,4.286855000000287,4.572249499999998,,,,,,,,,,,,,,,,,,,,,,,,,,,,,,,,,028938,001,2025-03-17_15h14.44.897,Estimulo_ICE,2024.2.4,60.0279730356233,2025-03-17 15h14.50.296915 -0300,
Estimulo_1,5,5,0,3.9,-3.9,3.9,-3.9,2.2,-2.2,-2.2,2.2,0,3,3,0,0,5,5,5,,,,,,,,,,,,,,,,,,,,,,,,,,,,,,,,,,,,,,,,,,,,,4.586845900000299,,,,,,,4.572599199999786,4.586845900000299,4.586845900000299,4.586845900000299,4.872483699999975,4.8727178999997705,4.886752100000194,4.886752100000194,4.886752100000194,5.172302400000262,,,,,,,,,,,,,,,,,,,,,,,,,,,,,,,,,028938,001,2025-03-17_15h14.44.897,Estimulo_ICE,2024.2.4,60.0279730356233,2025-03-17 15h14.50.296915 -0300,
Estimulo_1,6,6,0,3.8,-3.8,3.8,-3.8,2.2,-2.2,-2.2,2.2,0,3,3,0,0,6,6,6,,,,,,,,,,,,,,,,,,,,,,,,,,,,,,,,,,,,,,,,,,,,,5.186951200000294,,,,,,,5.172650299999987,5.186951200000294,5.186951200000294,5.186951200000294,5.472292899999957,5.472533799999837,5.4870033000006515,5.4870033000006515,5.4870033000006515,5.772433099999944,,,,,,,,,,,,,,,,,,,,,,,,,,,,,,,,,028938,001,2025-03-17_15h14.44.897,Estimulo_ICE,2024.2.4,60.0279730356233,2025-03-17 15h14.50.296915 -0300,
Estimulo_1,7,7,0,3.7,-3.7,3.7,-3.7,2.2,-2.2,-2.2,2.2,0,3,3,0,0,7,7,7,,,,,,,,,,,,,,,,,,,,,,,,,,,,,,,,,,,,,,,,,,,,,5.78671519999989,,,,,,,5.772779300000366,5.78671519999989,5.78671519999989,5.78671519999989,6.0723361999998815,6.07257269999991,6.086862400000427,6.086862400000427,6.086862400000427,6.3722138000002815,,,,,,,,,,,,,,,,,,,,,,,,,,,,,,,,,028938,001,2025-03-17_15h14.44.897,Estimulo_ICE,2024.2.4,60.0279730356233,2025-03-17 15h14.50.296915 -0300,
Estimulo_1,8,8,0,3.6,-3.6,3.6,-3.6,2.2,-2.2,-2.2,2.2,0,3,3,0,0,8,8,8,,,,,,,,,,,,,,,,,,,,,,,,,,,,,,,,,,,,,,,,,,,,,6.386874499999976,,,,,,,6.372560700000577,6.386874499999976,6.386874499999976,6.386874499999976,6.672430200000235,6.672666200000094,6.686845900000662,6.686845900000662,6.686845900000662,6.972380300000623,,,,,,,,,,,,,,,,,,,,,,,,,,,,,,,,,028938,001,2025-03-17_15h14.44.897,Estimulo_ICE,2024.2.4,60.0279730356233,2025-03-17 15h14.50.296915 -0300,
Estimulo_1,9,9,0,3.5,-3.5,3.5,-3.5,2.2,-2.2,-2.2,2.2,0,3,3,0,0,9,9,9,,,,,,,,,,,,,,,,,,,,,,,,,,,,,,,,,,,,,,,,,,,,,6.986955200000011,,,,,,,6.972725300000093,6.986955200000011,6.986955200000011,6.986955200000011,7.272481900000457,7.272720900000422,7.286821100000452,7.286821100000452,7.286821100000452,7.5723871000000145,,,,,,,,,,,,,,,,,,,,,,,,,,,,,,,,,028938,001,2025-03-17_15h14.44.897,Estimulo_ICE,2024.2.4,60.0279730356233,2025-03-17 15h14.50.296915 -0300,
Estimulo_1,10,10,0,3.39999999999999,-3.39999999999999,3.39999999999999,-3.39999999999999,2.2,-2.2,-2.2,2.2,0,3,3,0,0,10,10,10,,,,,,,,,,,,,,,,,,,,,,,,,,,,,,,,,,,,,,,,,,,,,7.586938700000246,,,,,,,7.572736799999802,7.586938700000246,7.586938700000246,7.586938700000246,7.872277200000099,7.872514600000613,7.886859000000186,7.886859000000186,7.886859000000186,8.172548000000461,,,,,,,,,,,,,,,,,,,,,,,,,,,,,,,,,028938,001,2025-03-17_15h14.44.897,Estimulo_ICE,2024.2.4,60.0279730356233,2025-03-17 15h14.50.296915 -0300,
Estimulo_1,11,11,0,3.29999999999999,-3.29999999999999,3.29999999999999,-3.29999999999999,2.2,-2.2,-2.2,2.2,0,3,3,0,0,11,11,11,,,,,,,,,,,,,,,,,,,,,,,,,,,,,,,,,,,,,,,,,,,,,8.186641400000553,,,,,,,8.172898200000418,8.186641400000553,8.186641400000553,8.186641400000553,8.472374699999818,8.472611199999847,8.48677250000037,8.48677250000037,8.48677250000037,8.772387099999833,,,,,,,,,,,,,,,,,,,,,,,,,,,,,,,,,028938,001,2025-03-17_15h14.44.897,Estimulo_ICE,2024.2.4,60.0279730356233,2025-03-17 15h14.50.296915 -0300,
Estimulo_1,12,12,0,3.19999999999999,-3.19999999999999,3.19999999999999,-3.19999999999999,2.2,-2.2,-2.2,2.2,0,3,3,0,0,12,12,12,,,,,,,,,,,,,,,,,,,,,,,,,,,,,,,,,,,,,,,,,,,,,8.78672860000006,,,,,,,8.772735500000636,8.78672860000006,8.78672860000006,8.78672860000006,9.07221329999993,9.072448599999916,9.086846799999876,9.086846799999876,9.086846799999876,9.372422500000539,,,,,,,,,,,,,,,,,,,,,,,,,,,,,,,,,028938,001,2025-03-17_15h14.44.897,Estimulo_ICE,2024.2.4,60.0279730356233,2025-03-17 15h14.50.296915 -0300,
Estimulo_1,13,13,0,3.09999999999999,-3.09999999999999,3.09999999999999,-3.09999999999999,2.2,-2.2,-2.2,2.2,0,3,3,0,0,13,13,13,,,,,,,,,,,,,,,,,,,,,,,,,,,,,,,,,,,,,,,,,,,,,9.386653500000648,,,,,,,9.372775200000433,9.386653500000648,9.386653500000648,9.386653500000648,9.672481999999945,9.672717899999952,9.686823600000025,9.686823600000025,9.686823600000025,9.972349000000577,,,,,,,,,,,,,,,,,,,,,,,,,,,,,,,,,028938,001,2025-03-17_15h14.44.897,Estimulo_ICE,2024.2.4,60.0279730356233,2025-03-17 15h14.50.296915 -0300,
Estimulo_1,14,14,0,2.99999999999999,-2.99999999999999,2.99999999999999,-2.99999999999999,2.2,-2.2,-2.2,2.2,0,3,3,0,0,14,14,14,,,,,,,,,,,,,,,,,,,,,,,,,,,,,,,,,,,,,,,,,,,,,9.986701100000573,,,,,,,9.972696200000428,9.986701100000573,9.986701100000573,9.986701100000573,10.272377000000233,10.272613199999796,10.286887400000523,10.286887400000523,10.286887400000523,10.572386400000141,,,,,,,,,,,,,,,,,,,,,,,,,,,,,,,,,028938,001,2025-03-17_15h14.44.897,Estimulo_ICE,2024.2.4,60.0279730356233,2025-03-17 15h14.50.296915 -0300,
Estimulo_1,15,15,0,2.89999999999999,-2.89999999999999,2.89999999999999,-2.89999999999999,2.2,-2.2,-2.2,2.2,0,3,3,0,0,15,15,15,,,,,,,,,,,,,,,,,,,,,,,,,,,,,,,,,,,,,,,,,,,,,10.586682400000427,,,,,,,10.57273609999993,10.586682400000427,10.586682400000427,10.586682400000427,10.872349799999938,10.872594800000115,10.886742499999855,10.886742499999855,10.886742499999855,11.17243469999994,,,,,,,,,,,,,,,,,,,,,,,,,,,,,,,,,028938,001,2025-03-17_15h14.44.897,Estimulo_ICE,2024.2.4,60.0279730356233,2025-03-17 15h14.50.296915 -0300,
Estimulo_1,16,16,0,2.79999999999999,-2.79999999999999,2.79999999999999,-2.79999999999999,2.2,-2.2,-2.2,2.2,0,3,3,0,0,16,16,16,,,,,,,,,,,,,,,,,,,,,,,,,,,,,,,,,,,,,,,,,,,,,11.186899100000119,,,,,,,11.172785300000214,11.186899100000119,11.186899100000119,11.186899100000119,11.472431900000629,11.472651300000507,11.487310200000138,11.487310200000138,11.487310200000138,11.77257920000011,,,,,,,,,,,,,,,,,,,,,,,,,,,,,,,,,028938,001,2025-03-17_15h14.44.897,Estimulo_ICE,2024.2.4,60.0279730356233,2025-03-17 15h14.50.296915 -0300,
Estimulo_1,17,17,0,2.69999999999999,-2.69999999999999,2.69999999999999,-2.69999999999999,2.2,-2.2,-2.2,2.2,0,3,3,0,0,17,17,17,,,,,,,,,,,,,,,,,,,,,,,,,,,,,,,,,,,,,,,,,,,,,11.787060300000121,,,,,,,11.772902499999873,11.787060300000121,11.787060300000121,11.787060300000121,12.056655500000488,12.05708229999982,12.070946200000435,12.070946200000435,12.070946200000435,12.356149600000208,12.370033400000466,12.370033400000466,12.370033400000466,,,,,,,,,,,,,,,,,,,,,,,,,,,,,,028938,001,2025-03-17_15h14.44.897,Estimulo_ICE,2024.2.4,60.0279730356233,2025-03-17 15h14.50.296915 -0300,
Estimulo_1,18,18,0,2.59999999999999,-2.59999999999999,2.59999999999999,-2.59999999999999,2.2,-2.2,-2.2,2.2,0,3,3,0,0,18,18,18,,,,,,,,,,,,,,,,,,,,,,,,,,,,,,,,,,,,,,,,,,,,,12.370033400000466,,,,,,,12.356502900000123,12.370033400000466,12.370033400000466,12.370033400000466,12.657255199999781,12.657683899999938,12.67090780000035,12.67090780000035,12.67090780000035,12.958199499999864,,,,,,,,,,,,,,,,,,,,,,,,,,,,,,,,,028938,001,2025-03-17_15h14.44.897,Estimulo_ICE,2024.2.4,60.0279730356233,2025-03-17 15h14.50.296915 -0300,
Estimulo_1,19,19,0,2.49999999999999,-2.49999999999999,2.49999999999999,-2.49999999999999,2.2,-2.2,-2.2,2.2,0,3,3,0,0,19,19,19,,,,,,,,,,,,,,,,,,,,,,,,,,,,,,,,,,,,,,,,,,,,,12.970920800000385,,,,,,,12.958829100000003,12.970920800000385,12.970920800000385,12.970920800000385,13.258330499999829,13.258758099999795,13.27092630000061,13.27092630000061,13.27092630000061,13.558287300000302,,,,,,,,,,,,,,,,,,,,,,,,,,,,,,,,,028938,001,2025-03-17_15h14.44.897,Estimulo_ICE,2024.2.4,60.0279730356233,2025-03-17 15h14.50.296915 -0300,
Estimulo_1,20,20,0,2.39999999999999,-2.39999999999999,2.39999999999999,-2.39999999999999,2.2,-2.2,-2.2,2.2,0,3,3,0,0,20,20,20,,,,,,,,,,,,,,,,,,,,,,,,,,,,,,,,,,,,,,,,,,,,,13.570978200000354,,,,,,,13.55891800000063,13.570978200000354,13.570978200000354,13.570978200000354,13.855955400000312,13.856211199999962,13.870142400000077,13.870142400000077,13.870142400000077,14.15608710000015,14.170152499999858,14.170152499999858,14.170152499999858,13.870142400000077,13.870142400000077,13.870142400000077,,,,,,,,,,,,,,,,,,,,,,,,,,,028938,001,2025-03-17_15h14.44.897,Estimulo_ICE,2024.2.4,60.0279730356233,2025-03-17 15h14.50.296915 -0300,
Estimulo_1,21,21,0,2.29999999999999,-2.29999999999999,2.29999999999999,-2.29999999999999,2.2,-2.2,-2.2,2.2,0,3,3,0,0,21,21,21,,,,,,,,,,,,,,,,,,,,,,,,,,,,,,,,,,,,,,,,,,,,,14.170152499999858,,,,,,,14.156455500000448,14.170152499999858,14.170152499999858,14.170152499999858,14.458737800000563,14.459189799999876,14.471020800000588,14.471020800000588,14.471020800000588,14.758622100000139,,,,,,,,,,,,,,,,,,,,,,,,,,,,,,,,,028938,001,2025-03-17_15h14.44.897,Estimulo_ICE,2024.2.4,60.0279730356233,2025-03-17 15h14.50.296915 -0300,
Estimulo_1,22,22,0,2.19999999999999,-2.19999999999999,2.19999999999999,-2.19999999999999,2.2,-2.2,-2.2,2.2,0,3,3,0,0,22,22,22,,,,,,,,,,,,,,,,,,,,,,,,,,,,,,,,,,,,,,,,,,,,,14.770949599999767,,,,,,,14.75930630000039,14.770949599999767,14.770949599999767,14.770949599999767,15.058611200000087,15.059063800000331,15.071036899999854,15.071036899999854,15.071036899999854,15.361192700000174,,,,,,,,,,,,,,,,,,,,,,,,,,,,,,,,,028938,001,2025-03-17_15h14.44.897,Estimulo_ICE,2024.2.4,60.0279730356233,2025-03-17 15h14.50.296915 -0300,
Estimulo_1,23,23,0,2.09999999999999,-2.09999999999999,2.09999999999999,-2.09999999999999,2.2,-2.2,-2.2,2.2,0,3,3,0,0,23,23,23,,,,,,,,,,,,,,,,,,,,,,,,,,,,,,,,,,,,,,,,,,,,,15.371897699999863,,,,,,,15.362146500000563,15.371897699999863,15.371897699999863,15.371897699999863,15.66121269999985,15.661838699999862,15.671767200000431,15.671767200000431,15.671767200000431,15.957937300000594,,,,,,,,,,,,,,,,,,,,,,,,,,,,,,,,,028938,001,2025-03-17_15h14.44.897,Estimulo_ICE,2024.2.4,60.0279730356233,2025-03-17 15h14.50.296915 -0300,
Estimulo_1,24,24,0,1.99999999999999,-1.99999999999999,1.99999999999999,-1.99999999999999,2.2,-2.2,-2.2,2.2,0,3,3,0,0,24,24,24,,,,,,,,,,,,,,,,,,,,,,,,,,,,,,,,,,,,,,,,,,,,,15.970701799999915,,,,,,,15.9585390000002,15.970701799999915,15.970701799999915,15.970701799999915,16.259416200000487,16.259834100000262,16.270700000000033,16.270700000000033,16.270700000000033,16.556494700000258,16.570305700000063,16.570305700000063,16.570305700000063,,,,,,,,,,,,,,,,,,,,,,,,,,,,,,028938,001,2025-03-17_15h14.44.897,Estimulo_ICE,2024.2.4,60.0279730356233,2025-03-17 15h14.50.296915 -0300,
Estimulo_1,25,25,0,1.89999999999999,-1.89999999999999,1.89999999999999,-1.89999999999999,2.2,-2.2,-2.2,2.2,0,3,3,0,0,25,25,25,,,,,,,,,,,,,,,,,,,,,,,,,,,,,,,,,,,,,,,,,,,,,16.570305700000063,,,,,,,16.556919300000118,16.570305700000063,16.570305700000063,16.570305700000063,16.856620399999883,16.856910000000425,16.870162500000333,16.870162500000333,16.870162500000333,17.156409600000188,17.170181600000433,17.170181600000433,17.170181600000433,16.870162500000333,16.870162500000333,16.870162500000333,,,,,,,,,,,,,,,,,,,,,,,,,,,028938,001,2025-03-17_15h14.44.897,Estimulo_ICE,2024.2.4,60.0279730356233,2025-03-17 15h14.50.296915 -0300,
Estimulo_1,26,26,0,1.79999999999999,-1.79999999999999,1.79999999999999,-1.79999999999999,2.2,-2.2,-2.2,2.2,0,3,3,0,0,26,26,26,,,,,,,,,,,,,,,,,,,,,,,,,,,,,,,,,,,,,,,,,,,,,17.170181600000433,,,,,,,17.156832300000133,17.170181600000433,17.170181600000433,17.170181600000433,17.45589310000014,17.456143999999767,17.47021170000062,17.47021170000062,17.47021170000062,17.756049900000107,17.770074800000657,17.770074800000657,17.770074800000657,17.47021170000062,17.47021170000062,17.47021170000062,,,,,,,,,,,,,,,,,,,,,,,,,,,028938,001,2025-03-17_15h14.44.897,Estimulo_ICE,2024.2.4,60.0279730356233,2025-03-17 15h14.50.296915 -0300,
Estimulo_1,27,27,0,1.69999999999999,-1.69999999999999,1.69999999999999,-1.69999999999999,2.2,-2.2,-2.2,2.2,0,3,3,0,0,27,27,27,,,,,,,,,,,,,,,,,,,,,,,,,,,,,,,,,,,,,,,,,,,,,17.770074800000657,,,,,,,17.756417700000384,17.770074800000657,17.770074800000657,17.770074800000657,18.056034900000668,18.056285600000592,18.07015610000053,18.07015610000053,18.07015610000053,18.355967700000292,18.370116600000074,18.370116600000074,18.370116600000074,18.07015610000053,18.07015610000053,18.07015610000053,,,,,,,,,,,,,,,,,,,,,,,,,,,028938,001,2025-03-17_15h14.44.897,Estimulo_ICE,2024.2.4,60.0279730356233,2025-03-17 15h14.50.296915 -0300,
Estimulo_1,28,28,0,1.59999999999999,-1.59999999999999,1.59999999999999,-1.59999999999999,2.2,-2.2,-2.2,2.2,0,3,3,0,0,28,28,28,,,,,,,,,,,,,,,,,,,,,,,,,,,,,,,,,,,,,,,,,,,,,18.370116600000074,,,,,,,18.356343800000104,18.370116600000074,18.370116600000074,18.370116600000074,18.65587820000019,18.656130200000007,18.67016320000039,18.67016320000039,18.67016320000039,18.956191000000217,18.969931700000416,18.969931700000416,18.969931700000416,18.67016320000039,18.67016320000039,18.67016320000039,,,,,,,,,,,,,,,,,,,,,,,,,,,028938,001,2025-03-17_15h14.44.897,Estimulo_ICE,2024.2.4,60.0279730356233,2025-03-17 15h14.50.296915 -0300,
Estimulo_1,29,29,0,1.49999999999999,-1.49999999999998,1.49999999999999,-1.49999999999998,2.2,-2.2,-2.2,2.2,0,3,3,0,0,29,29,29,,,,,,,,,,,,,,,,,,,,,,,,,,,,,,,,,,,,,,,,,,,,,18.969931700000416,,,,,,,18.956544399999984,18.969931700000416,18.969931700000416,18.969931700000416,19.255859599999894,19.256107600000178,19.269886600000063,19.269886600000063,19.269886600000063,19.5589829999999,,,,19.269886600000063,19.269886600000063,19.269886600000063,,,,,,,,,,,,,,,,,,,,,,,,,,,028938,001,2025-03-17_15h14.44.897,Estimulo_ICE,2024.2.4,60.0279730356233,2025-03-17 15h14.50.296915 -0300,
Estimulo_1,30,30,0,1.39999999999999,-1.39999999999998,1.39999999999999,-1.39999999999998,2.2,-2.2,-2.2,2.2,0,3,3,0,0,30,30,30,,,,,,,,,,,,,,,,,,,,,,,,,,,,,,,,,,,,,,,,,,,,,19.5711081999998,,,,,,,19.559705300000132,19.5711081999998,19.5711081999998,19.5711081999998,19.85893750000014,19.859428300000218,19.871003700000074,19.871003700000074,19.871003700000074,20.159036400000332,,,,,,,,,,,,,,,,,,,,,,,,,,,,,,,,,028938,001,2025-03-17_15h14.44.897,Estimulo_ICE,2024.2.4,60.0279730356233,2025-03-17 15h14.50.296915 -0300,
Estimulo_1,31,31,0,1.29999999999999,-1.29999999999998,1.29999999999999,-1.29999999999998,2.2,-2.2,-2.2,2.2,0,3,3,0,0,31,31,31,,,,,,,,,,,,,,,,,,,,,,,,,,,,,,,,,,,,,,,,,,,,,20.17120479999994,,,,,,,20.159752300000036,20.17120479999994,20.17120479999994,20.17120479999994,20.456489500000316,20.456787400000394,20.470420999999988,20.470420999999988,20.470420999999988,20.756424799999877,,,,,,,,,,,,,,,,,,,,,,,,,,,,,,,,,028938,001,2025-03-17_15h14.44.897,Estimulo_ICE,2024.2.4,60.0279730356233,2025-03-17 15h14.50.296915 -0300,
Estimulo_1,32,32,0,1.19999999999999,-1.19999999999998,1.19999999999999,-1.19999999999998,2.2,-2.2,-2.2,2.2,0,3,3,0,0,32,32,32,,,,,,,,,,,,,,,,,,,,,,,,,,,,,,,,,,,,,,,,,,,,,20.770541300000332,,,,,,,20.756869599999845,20.770541300000332,20.770541300000332,20.770541300000332,21.056377200000497,21.05667110000013,21.07041029999982,21.07041029999982,21.07041029999982,21.356375200000002,,,,,,,,,,,,,,,,,,,,,,,,,,,,,,,,,028938,001,2025-03-17_15h14.44.897,Estimulo_ICE,2024.2.4,60.0279730356233,2025-03-17 15h14.50.296915 -0300,
Estimulo_1,33,33,0,1.09999999999999,-1.09999999999998,1.09999999999999,-1.09999999999998,2.2,-2.2,-2.2,2.2,0,3,3,0,0,33,33,33,,,,,,,,,,,,,,,,,,,,,,,,,,,,,,,,,,,,,,,,,,,,,21.37013240000033,,,,,,,21.356822499999907,21.37013240000033,21.37013240000033,21.37013240000033,21.656654200000048,21.656911600000058,21.670067300000483,21.670067300000483,21.670067300000483,21.955843300000197,22.019644099999823,22.019644099999823,22.019644099999823,21.670067300000483,21.670067300000483,21.670067300000483,,,,,,,,,,,,,,,,,,,,,,,,,,,028938,001,2025-03-17_15h14.44.897,Estimulo_ICE,2024.2.4,60.0279730356233,2025-03-17 15h14.50.296915 -0300,
Estimulo_1,0,0,0,4.4,-4.4,4.4,-4.4,2.2,-2.2,-2.2,2.2,0,3,3,0,,,,,,,,,,,,,,,,,0,0,0,0,,,,,,,,,,,,,,,,,,,,,,,,,,,,,22.019644099999823,,,,,,,,,,,,,,,,,,,,,,,22.003131700000267,22.019644099999823,22.019644099999823,22.019644099999823,22.255921500000113,22.256134300000667,22.270052900000337,22.270052900000337,22.270052900000337,22.570055799999864,22.570055799999864,22.570055799999864,22.555965800000195,,,,,,,,,,,,,,028938,001,2025-03-17_15h14.44.897,Estimulo_ICE,2024.2.4,60.0279730356233,2025-03-17 15h14.50.296915 -0300,
Estimulo_1,1,1,0,4.3,-4.3,4.3,-4.3,2.2,-2.2,-2.2,2.2,0,3,3,0,,,,,,,,,,,,,,,,,0,1,1,1,,,,,,,,,,,,,,,,,,,,,,,,,,,,,22.570055799999864,,,,,,,,,,,,,,,,,,,,,,,22.556338100000175,22.570055799999864,22.570055799999864,22.570055799999864,22.856554099999812,22.856796699999904,22.870058999999856,22.870058999999856,22.870058999999856,23.17011309999998,23.17011309999998,23.17011309999998,23.155929200000173,,,,,,,,,,,,,,028938,001,2025-03-17_15h14.44.897,Estimulo_ICE,2024.2.4,60.0279730356233,2025-03-17 15h14.50.296915 -0300,
Estimulo_1,2,2,0,4.2,-4.2,4.2,-4.2,2.2,-2.2,-2.2,2.2,0,3,3,0,,,,,,,,,,,,,,,,,0,2,2,2,,,,,,,,,,,,,,,,,,,,,,,,,,,,,23.17011309999998,,,,,,,,,,,,,,,,,,,,,,,23.156280300000617,23.17011309999998,23.17011309999998,23.17011309999998,23.456026300000303,23.45628080000006,23.469929599999887,23.469929599999887,23.469929599999887,23.770066500000212,23.770066500000212,23.770066500000212,23.75616160000027,23.469929599999887,23.469929599999887,23.469929599999887,,,,,,,,,,,028938,001,2025-03-17_15h14.44.897,Estimulo_ICE,2024.2.4,60.0279730356233,2025-03-17 15h14.50.296915 -0300,
Estimulo_1,3,3,0,4.1,-4.1,4.1,-4.1,2.2,-2.2,-2.2,2.2,0,3,3,0,,,,,,,,,,,,,,,,,0,3,3,3,,,,,,,,,,,,,,,,,,,,,,,,,,,,,23.770066500000212,,,,,,,,,,,,,,,,,,,,,,,23.7565125000001,23.770066500000212,23.770066500000212,23.770066500000212,24.055889500000376,24.056181099999776,24.069813400000385,24.069813400000385,24.069813400000385,24.37026640000022,24.37026640000022,24.37026640000022,24.35626769999999,24.069813400000385,24.069813400000385,24.069813400000385,,,,,,,,,,,028938,001,2025-03-17_15h14.44.897,Estimulo_ICE,2024.2.4,60.0279730356233,2025-03-17 15h14.50.296915 -0300,
Estimulo_1,4,4,0,4,-4,4,-4,2.2,-2.2,-2.2,2.2,0,3,3,0,,,,,,,,,,,,,,,,,0,4,4,4,,,,,,,,,,,,,,,,,,,,,,,,,,,,,24.37026640000022,,,,,,,,,,,,,,,,,,,,,,,24.3566550000005,24.37026640000022,24.37026640000022,24.37026640000022,24.65587770000002,24.656130100000155,24.67009169999983,24.67009169999983,24.67009169999983,24.970089600000392,24.970089600000392,24.970089600000392,24.956228400000327,24.67009169999983,24.67009169999983,24.67009169999983,,,,,,,,,,,028938,001,2025-03-17_15h14.44.897,Estimulo_ICE,2024.2.4,60.0279730356233,2025-03-17 15h14.50.296915 -0300,
Estimulo_1,5,5,0,3.9,-3.9,3.9,-3.9,2.2,-2.2,-2.2,2.2,0,3,3,0,,,,,,,,,,,,,,,,,0,5,5,5,,,,,,,,,,,,,,,,,,,,,,,,,,,,,24.970089600000392,,,,,,,,,,,,,,,,,,,,,,,24.956603700000414,24.970089600000392,24.970089600000392,24.970089600000392,25.25575050000043,25.25600459999987,25.270149300000412,25.270149300000412,25.270149300000412,25.569977900000595,25.569977900000595,25.569977900000595,25.55601470000056,25.270149300000412,25.270149300000412,25.270149300000412,,,,,,,,,,,028938,001,2025-03-17_15h14.44.897,Estimulo_ICE,2024.2.4,60.0279730356233,2025-03-17 15h14.50.296915 -0300,
Estimulo_1,6,6,0,3.8,-3.8,3.8,-3.8,2.2,-2.2,-2.2,2.2,0,3,3,0,,,,,,,,,,,,,,,,,0,6,6,6,,,,,,,,,,,,,,,,,,,,,,,,,,,,,25.569977900000595,,,,,,,,,,,,,,,,,,,,,,,25.55638799999997,25.569977900000595,25.569977900000595,25.569977900000595,25.85588430000007,25.856136600000355,25.870042399999875,25.870042399999875,25.870042399999875,26.170254200000272,26.170254200000272,26.170254200000272,26.155835300000035,25.870042399999875,25.870042399999875,25.870042399999875,,,,,,,,,,,028938,001,2025-03-17_15h14.44.897,Estimulo_ICE,2024.2.4,60.0279730356233,2025-03-17 15h14.50.296915 -0300,
Estimulo_1,7,7,0,3.7,-3.7,3.7,-3.7,2.2,-2.2,-2.2,2.2,0,3,3,0,,,,,,,,,,,,,,,,,0,7,7,7,,,,,,,,,,,,,,,,,,,,,,,,,,,,,26.170254200000272,,,,,,,,,,,,,,,,,,,,,,,26.156207099999847,26.170254200000272,26.170254200000272,26.170254200000272,26.455832100000407,26.456088900000395,26.470091500000308,26.470091500000308,26.470091500000308,26.77012250000007,26.77012250000007,26.77012250000007,26.755995900000016,26.470091500000308,26.470091500000308,26.470091500000308,,,,,,,,,,,028938,001,2025-03-17_15h14.44.897,Estimulo_ICE,2024.2.4,60.0279730356233,2025-03-17 15h14.50.296915 -0300,
Estimulo_1,8,8,0,3.6,-3.6,3.6,-3.6,2.2,-2.2,-2.2,2.2,0,3,3,0,,,,,,,,,,,,,,,,,0,8,8,8,,,,,,,,,,,,,,,,,,,,,,,,,,,,,26.77012250000007,,,,,,,,,,,,,,,,,,,,,,,26.756363800000145,26.77012250000007,26.77012250000007,26.77012250000007,27.055896300000313,27.05615149999994,27.07008920000044,27.07008920000044,27.07008920000044,27.37009990000024,27.37009990000024,27.37009990000024,27.355929800000013,27.07008920000044,27.07008920000044,27.07008920000044,,,,,,,,,,,028938,001,2025-03-17_15h14.44.897,Estimulo_ICE,2024.2.4,60.0279730356233,2025-03-17 15h14.50.296915 -0300,
Estimulo_1,9,9,0,3.5,-3.5,3.5,-3.5,2.2,-2.2,-2.2,2.2,0,3,3,0,,,,,,,,,,,,,,,,,0,9,9,9,,,,,,,,,,,,,,,,,,,,,,,,,,,,,27.37009990000024,,,,,,,,,,,,,,,,,,,,,,,27.356300999999803,27.37009990000024,27.37009990000024,27.37009990000024,27.655937800000174,27.656190400000014,27.67002970000067,27.67002970000067,27.67002970000067,27.97010010000031,27.97010010000031,27.97010010000031,27.955986900000426,27.67002970000067,27.67002970000067,27.67002970000067,,,,,,,,,,,028938,001,2025-03-17_15h14.44.897,Estimulo_ICE,2024.2.4,60.0279730356233,2025-03-17 15h14.50.296915 -0300,
Estimulo_1,10,10,0,3.39999999999999,-3.39999999999999,3.39999999999999,-3.39999999999999,2.2,-2.2,-2.2,2.2,0,3,3,0,,,,,,,,,,,,,,,,,0,10,10,10,,,,,,,,,,,,,,,,,,,,,,,,,,,,,27.97010010000031,,,,,,,,,,,,,,,,,,,,,,,27.95636040000045,27.97010010000031,27.97010010000031,27.97010010000031,28.256011299999955,28.256263799999942,28.269943299999795,28.269943299999795,28.269943299999795,28.569953400000486,28.569953400000486,28.569953400000486,28.55601209999986,28.269943299999795,28.269943299999795,28.269943299999795,,,,,,,,,,,028938,001,2025-03-17_15h14.44.897,Estimulo_ICE,2024.2.4,60.0279730356233,2025-03-17 15h14.50.296915 -0300,
Estimulo_1,11,11,0,3.29999999999999,-3.29999999999999,3.29999999999999,-3.29999999999999,2.2,-2.2,-2.2,2.2,0,3,3,0,,,,,,,,,,,,,,,,,0,11,11,11,,,,,,,,,,,,,,,,,,,,,,,,,,,,,28.569953400000486,,,,,,,,,,,,,,,,,,,,,,,28.5563688000002,28.569953400000486,28.569953400000486,28.569953400000486,28.856004799999937,28.85625970000001,28.86999680000008,28.86999680000008,28.86999680000008,29.170027199999822,29.170027199999822,29.170027199999822,29.15603850000025,28.86999680000008,28.86999680000008,28.86999680000008,,,,,,,,,,,028938,001,2025-03-17_15h14.44.897,Estimulo_ICE,2024.2.4,60.0279730356233,2025-03-17 15h14.50.296915 -0300,
Estimulo_1,12,12,0,3.19999999999999,-3.19999999999999,3.19999999999999,-3.19999999999999,2.2,-2.2,-2.2,2.2,0,3,3,0,,,,,,,,,,,,,,,,,0,12,12,12,,,,,,,,,,,,,,,,,,,,,,,,,,,,,29.170027199999822,,,,,,,,,,,,,,,,,,,,,,,29.15641190000042,29.170027199999822,29.170027199999822,29.170027199999822,29.45599409999977,29.456247099999928,29.47004720000041,29.47004720000041,29.47004720000041,29.77005740000004,29.77005740000004,29.77005740000004,29.755946199999926,29.47004720000041,29.47004720000041,29.47004720000041,,,,,,,,,,,028938,001,2025-03-17_15h14.44.897,Estimulo_ICE,2024.2.4,60.0279730356233,2025-03-17 15h14.50.296915 -0300,
Estimulo_1,13,13,0,3.09999999999999,-3.09999999999999,3.09999999999999,-3.09999999999999,2.2,-2.2,-2.2,2.2,0,3,3,0,,,,,,,,,,,,,,,,,0,13,13,13,,,,,,,,,,,,,,,,,,,,,,,,,,,,,29.77005740000004,,,,,,,,,,,,,,,,,,,,,,,29.756319500000245,29.77005740000004,29.77005740000004,29.77005740000004,30.055953500000214,30.05620809999982,30.07007489999978,30.07007489999978,30.07007489999978,30.370065799999793,30.370065799999793,30.370065799999793,30.35606580000058,30.07007489999978,30.07007489999978,30.07007489999978,,,,,,,,,,,028938,001,2025-03-17_15h14.44.897,Estimulo_ICE,2024.2.4,60.0279730356233,2025-03-17 15h14.50.296915 -0300,
Estimulo_1,14,14,0,2.99999999999999,-2.99999999999999,2.99999999999999,-2.99999999999999,2.2,-2.2,-2.2,2.2,0,3,3,0,,,,,,,,,,,,,,,,,0,14,14,14,,,,,,,,,,,,,,,,,,,,,,,,,,,,,30.370065799999793,,,,,,,,,,,,,,,,,,,,,,,30.35643919999984,30.370065799999793,30.370065799999793,30.370065799999793,30.655978400000095,30.656233200000315,30.669994300000326,30.669994300000326,30.669994300000326,30.970038000000386,30.970038000000386,30.970038000000386,30.956033700000262,30.669994300000326,30.669994300000326,30.669994300000326,,,,,,,,,,,028938,001,2025-03-17_15h14.44.897,Estimulo_ICE,2024.2.4,60.0279730356233,2025-03-17 15h14.50.296915 -0300,
Estimulo_1,15,15,0,2.89999999999999,-2.89999999999999,2.89999999999999,-2.89999999999999,2.2,-2.2,-2.2,2.2,0,3,3,0,,,,,,,,,,,,,,,,,0,15,15,15,,,,,,,,,,,,,,,,,,,,,,,,,,,,,30.970038000000386,,,,,,,,,,,,,,,,,,,,,,,30.956404900000052,30.970038000000386,30.970038000000386,30.970038000000386,31.257348000000093,31.258189400000447,31.272474700000203,31.272474700000203,31.272474700000203,,,,31.55928810000023,,,,,,,,,,,,,,028938,001,2025-03-17_15h14.44.897,Estimulo_ICE,2024.2.4,60.0279730356233,2025-03-17 15h14.50.296915 -0300,
Estimulo_1,16,16,0,2.79999999999999,-2.79999999999999,2.79999999999999,-2.79999999999999,2.2,-2.2,-2.2,2.2,0,3,3,0,,,,,,,,,,,,,,,,,0,16,16,16,,,,,,,,,,,,,,,,,,,,,,,,,,,,,31.571381000000656,,,,,,,,,,,,,,,,,,,,,,,31.560052599999835,31.571381000000656,31.571381000000656,31.571381000000656,31.86061400000017,31.86113320000004,31.871014299999842,31.871014299999842,31.871014299999842,,,,32.159349999999904,,,,,,,,,,,,,,028938,001,2025-03-17_15h14.44.897,Estimulo_ICE,2024.2.4,60.0279730356233,2025-03-17 15h14.50.296915 -0300,
Estimulo_1,17,17,0,2.69999999999999,-2.69999999999999,2.69999999999999,-2.69999999999999,2.2,-2.2,-2.2,2.2,0,3,3,0,,,,,,,,,,,,,,,,,0,17,17,17,,,,,,,,,,,,,,,,,,,,,,,,,,,,,32.17103959999986,,,,,,,,,,,,,,,,,,,,,,,32.16011500000059,32.17103959999986,32.17103959999986,32.17103959999986,32.4593375000004,32.45986150000044,32.4712755999999,32.4712755999999,32.4712755999999,,,,32.759299100000135,,,,,,,,,,,,,,028938,001,2025-03-17_15h14.44.897,Estimulo_ICE,2024.2.4,60.0279730356233,2025-03-17 15h14.50.296915 -0300,
Estimulo_1,18,18,0,2.59999999999999,-2.59999999999999,2.59999999999999,-2.59999999999999,2.2,-2.2,-2.2,2.2,0,3,3,0,,,,,,,,,,,,,,,,,0,18,18,18,,,,,,,,,,,,,,,,,,,,,,,,,,,,,32.771277900000314,,,,,,,,,,,,,,,,,,,,,,,32.760064500000226,32.771277900000314,32.771277900000314,32.771277900000314,33.05935370000043,33.059868899999856,33.07121830000051,33.07121830000051,33.07121830000051,,,,33.35595620000004,,,,,,,,,,,,,,028938,001,2025-03-17_15h14.44.897,Estimulo_ICE,2024.2.4,60.0279730356233,2025-03-17 15h14.50.296915 -0300,
Estimulo_1,19,19,0,2.49999999999999,-2.49999999999999,2.49999999999999,-2.49999999999999,2.2,-2.2,-2.2,2.2,0,3,3,0,,,,,,,,,,,,,,,,,0,19,19,19,,,,,,,,,,,,,,,,,,,,,,,,,,,,,33.36994279999999,,,,,,,,,,,,,,,,,,,,,,,33.35631620000004,33.36994279999999,33.36994279999999,33.36994279999999,33.65602089999993,33.656264199999896,33.66996160000053,33.66996160000053,33.66996160000053,33.97011199999997,33.97011199999997,33.97011199999997,33.95594660000006,33.66996160000053,33.66996160000053,33.66996160000053,,,,,,,,,,,028938,001,2025-03-17_15h14.44.897,Estimulo_ICE,2024.2.4,60.0279730356233,2025-03-17 15h14.50.296915 -0300,
Estimulo_1,20,20,0,2.39999999999999,-2.39999999999999,2.39999999999999,-2.39999999999999,2.2,-2.2,-2.2,2.2,0,3,3,0,,,,,,,,,,,,,,,,,0,20,20,20,,,,,,,,,,,,,,,,,,,,,,,,,,,,,33.97011199999997,,,,,,,,,,,,,,,,,,,,,,,33.95631940000021,33.97011199999997,33.97011199999997,33.97011199999997,34.255947800000285,34.256200400000125,34.2700334000001,34.2700334000001,34.2700334000001,34.5699695000003,34.5699695000003,34.5699695000003,34.555936000000656,34.2700334000001,34.2700334000001,34.2700334000001,,,,,,,,,,,028938,001,2025-03-17_15h14.44.897,Estimulo_ICE,2024.2.4,60.0279730356233,2025-03-17 15h14.50.296915 -0300,
Estimulo_1,21,21,0,2.29999999999999,-2.29999999999999,2.29999999999999,-2.29999999999999,2.2,-2.2,-2.2,2.2,0,3,3,0,,,,,,,,,,,,,,,,,0,21,21,21,,,,,,,,,,,,,,,,,,,,,,,,,,,,,34.5699695000003,,,,,,,,,,,,,,,,,,,,,,,34.55630540000038,34.5699695000003,34.5699695000003,34.5699695000003,34.85598610000034,34.85623900000064,34.86992890000056,34.86992890000056,34.86992890000056,35.1700036000002,35.1700036000002,35.1700036000002,35.15593929999977,34.86992890000056,34.86992890000056,34.86992890000056,,,,,,,,,,,028938,001,2025-03-17_15h14.44.897,Estimulo_ICE,2024.2.4,60.0279730356233,2025-03-17 15h14.50.296915 -0300,
Estimulo_1,22,22,0,2.19999999999999,-2.19999999999999,2.19999999999999,-2.19999999999999,2.2,-2.2,-2.2,2.2,0,3,3,0,,,,,,,,,,,,,,,,,0,22,22,22,,,,,,,,,,,,,,,,,,,,,,,,,,,,,35.1700036000002,,,,,,,,,,,,,,,,,,,,,,,35.15631570000005,35.1700036000002,35.1700036000002,35.1700036000002,35.455956400000105,35.456200499999795,35.47000350000053,35.47000350000053,35.47000350000053,35.769784099999924,35.769784099999924,35.769784099999924,35.75575380000009,35.47000350000053,35.47000350000053,35.47000350000053,,,,,,,,,,,028938,001,2025-03-17_15h14.44.897,Estimulo_ICE,2024.2.4,60.0279730356233,2025-03-17 15h14.50.296915 -0300,
Estimulo_1,23,23,0,2.09999999999999,-2.09999999999999,2.09999999999999,-2.09999999999999,2.2,-2.2,-2.2,2.2,0,3,3,0,,,,,,,,,,,,,,,,,0,23,23,23,,,,,,,,,,,,,,,,,,,,,,,,,,,,,35.769784099999924,,,,,,,,,,,,,,,,,,,,,,,35.7561268999998,35.769784099999924,35.769784099999924,35.769784099999924,36.05587259999993,36.05612569999994,36.06991180000023,36.06991180000023,36.06991180000023,36.37006190000011,36.37006190000011,36.37006190000011,36.3558778000006,36.06991180000023,36.06991180000023,36.06991180000023,,,,,,,,,,,028938,001,2025-03-17_15h14.44.897,Estimulo_ICE,2024.2.4,60.0279730356233,2025-03-17 15h14.50.296915 -0300,
Estimulo_1,24,24,0,1.99999999999999,-1.99999999999999,1.99999999999999,-1.99999999999999,2.2,-2.2,-2.2,2.2,0,3,3,0,,,,,,,,,,,,,,,,,0,24,24,24,,,,,,,,,,,,,,,,,,,,,,,,,,,,,36.37006190000011,,,,,,,,,,,,,,,,,,,,,,,36.35624900000039,36.37006190000011,36.37006190000011,36.37006190000011,36.655783500000325,36.65602630000012,36.669838900000286,36.669838900000286,36.669838900000286,36.97012350000023,36.97012350000023,36.97012350000023,36.95574690000012,36.669838900000286,36.669838900000286,36.669838900000286,,,,,,,,,,,028938,001,2025-03-17_15h14.44.897,Estimulo_ICE,2024.2.4,60.0279730356233,2025-03-17 15h14.50.296915 -0300,
Estimulo_1,25,25,0,1.89999999999999,-1.89999999999999,1.89999999999999,-1.89999999999999,2.2,-2.2,-2.2,2.2,0,3,3,0,,,,,,,,,,,,,,,,,0,25,25,25,,,,,,,,,,,,,,,,,,,,,,,,,,,,,36.97012350000023,,,,,,,,,,,,,,,,,,,,,,,36.95610940000006,36.97012350000023,36.97012350000023,36.97012350000023,37.255844100000104,37.25607140000011,37.27001079999991,37.27001079999991,37.27001079999991,37.569834300000366,37.569834300000366,37.569834300000366,37.55592330000036,37.27001079999991,37.27001079999991,37.27001079999991,,,,,,,,,,,028938,001,2025-03-17_15h14.44.897,Estimulo_ICE,2024.2.4,60.0279730356233,2025-03-17 15h14.50.296915 -0300,
Estimulo_1,26,26,0,1.79999999999999,-1.79999999999999,1.79999999999999,-1.79999999999999,2.2,-2.2,-2.2,2.2,0,3,3,0,,,,,,,,,,,,,,,,,0,26,26,26,,,,,,,,,,,,,,,,,,,,,,,,,,,,,37.569834300000366,,,,,,,,,,,,,,,,,,,,,,,37.556298500000594,37.569834300000366,37.569834300000366,37.569834300000366,37.855782999999974,37.85603590000028,37.86997580000025,37.86997580000025,37.86997580000025,38.16979600000013,38.16979600000013,38.16979600000013,38.1560086999998,37.86997580000025,37.86997580000025,37.86997580000025,,,,,,,,,,,028938,001,2025-03-17_15h14.44.897,Estimulo_ICE,2024.2.4,60.0279730356233,2025-03-17 15h14.50.296915 -0300,
Estimulo_1,27,27,0,1.69999999999999,-1.69999999999999,1.69999999999999,-1.69999999999999,2.2,-2.2,-2.2,2.2,0,3,3,0,,,,,,,,,,,,,,,,,0,27,27,27,,,,,,,,,,,,,,,,,,,,,,,,,,,,,38.16979600000013,,,,,,,,,,,,,,,,,,,,,,,38.15636309999991,38.16979600000013,38.16979600000013,38.16979600000013,38.455738999999994,38.45599029999994,38.46999620000042,38.46999620000042,38.46999620000042,38.770087500000045,38.770087500000045,38.770087500000045,38.75593260000005,38.46999620000042,38.46999620000042,38.46999620000042,,,,,,,,,,,028938,001,2025-03-17_15h14.44.897,Estimulo_ICE,2024.2.4,60.0279730356233,2025-03-17 15h14.50.296915 -0300,
Estimulo_1,28,28,0,1.59999999999999,-1.59999999999999,1.59999999999999,-1.59999999999999,2.2,-2.2,-2.2,2.2,0,3,3,0,,,,,,,,,,,,,,,,,0,28,28,28,,,,,,,,,,,,,,,,,,,,,,,,,,,,,38.770087500000045,,,,,,,,,,,,,,,,,,,,,,,38.75630629999978,38.770087500000045,38.770087500000045,38.770087500000045,39.05591520000053,39.05616710000049,39.069958099999894,39.069958099999894,39.069958099999894,39.36998279999989,39.36998279999989,39.36998279999989,39.35580240000036,39.069958099999894,39.069958099999894,39.069958099999894,,,,,,,,,,,028938,001,2025-03-17_15h14.44.897,Estimulo_ICE,2024.2.4,60.0279730356233,2025-03-17 15h14.50.296915 -0300,
Estimulo_1,29,29,0,1.49999999999999,-1.49999999999998,1.49999999999999,-1.49999999999998,2.2,-2.2,-2.2,2.2,0,3,3,0,,,,,,,,,,,,,,,,,0,29,29,29,,,,,,,,,,,,,,,,,,,,,,,,,,,,,39.36998279999989,,,,,,,,,,,,,,,,,,,,,,,39.35617379999985,39.36998279999989,39.36998279999989,39.36998279999989,39.65579720000005,39.656048400000145,39.67005270000027,39.67005270000027,39.67005270000027,39.97004300000026,39.97004300000026,39.97004300000026,39.955724700000246,39.67005270000027,39.67005270000027,39.67005270000027,,,,,,,,,,,028938,001,2025-03-17_15h14.44.897,Estimulo_ICE,2024.2.4,60.0279730356233,2025-03-17 15h14.50.296915 -0300,
Estimulo_1,30,30,0,1.39999999999999,-1.39999999999998,1.39999999999999,-1.39999999999998,2.2,-2.2,-2.2,2.2,0,3,3,0,,,,,,,,,,,,,,,,,0,30,30,30,,,,,,,,,,,,,,,,,,,,,,,,,,,,,39.97004300000026,,,,,,,,,,,,,,,,,,,,,,,39.95609710000008,39.97004300000026,39.97004300000026,39.97004300000026,40.255736199999774,40.255961100000604,40.2699403000006,40.2699403000006,40.2699403000006,40.57008219999989,40.57008219999989,40.57008219999989,40.55592400000023,40.2699403000006,40.2699403000006,40.2699403000006,,,,,,,,,,,028938,001,2025-03-17_15h14.44.897,Estimulo_ICE,2024.2.4,60.0279730356233,2025-03-17 15h14.50.296915 -0300,
Estimulo_1,31,31,0,1.29999999999999,-1.29999999999998,1.29999999999999,-1.29999999999998,2.2,-2.2,-2.2,2.2,0,3,3,0,,,,,,,,,,,,,,,,,0,31,31,31,,,,,,,,,,,,,,,,,,,,,,,,,,,,,40.57008219999989,,,,,,,,,,,,,,,,,,,,,,,40.55629670000053,40.57008219999989,40.57008219999989,40.57008219999989,40.85591160000058,40.85616399999981,40.869920600000114,40.869920600000114,40.869920600000114,41.170075400000314,41.170075400000314,41.170075400000314,41.15586549999989,40.869920600000114,40.869920600000114,40.869920600000114,,,,,,,,,,,028938,001,2025-03-17_15h14.44.897,Estimulo_ICE,2024.2.4,60.0279730356233,2025-03-17 15h14.50.296915 -0300,
Estimulo_1,32,32,0,1.19999999999999,-1.19999999999998,1.19999999999999,-1.19999999999998,2.2,-2.2,-2.2,2.2,0,3,3,0,,,,,,,,,,,,,,,,,0,32,32,32,,,,,,,,,,,,,,,,,,,,,,,,,,,,,41.170075400000314,,,,,,,,,,,,,,,,,,,,,,,41.15624019999996,41.170075400000314,41.170075400000314,41.170075400000314,41.45589579999978,41.45615100000032,41.47005150000041,41.47005150000041,41.47005150000041,41.769942699999774,41.769942699999774,41.769942699999774,41.755742199999986,41.47005150000041,41.47005150000041,41.47005150000041,,,,,,,,,,,028938,001,2025-03-17_15h14.44.897,Estimulo_ICE,2024.2.4,60.0279730356233,2025-03-17 15h14.50.296915 -0300,
Estimulo_1,33,33,0,1.09999999999999,-1.09999999999998,1.09999999999999,-1.09999999999998,2.2,-2.2,-2.2,2.2,0,3,3,0,,,,,,,,,,,,,,,,,0,33,33,33,,,,,,,,,,,,,,,,,,,,,,,,,,,,,41.769942699999774,,,,,,,,,,,,,,,,,,,,,,,41.75611089999984,41.769942699999774,41.769942699999774,41.769942699999774,42.05589229999987,42.05614550000064,42.06985789999999,42.06985789999999,42.06985789999999,42.452889199999845,42.452889199999845,42.452889199999845,42.355927800000245,42.06985789999999,42.06985789999999,42.06985789999999,,,,,,,,,,,028938,001,2025-03-17_15h14.44.897,Estimulo_ICE,2024.2.4,60.0279730356233,2025-03-17 15h14.50.296915 -0300,
Estimulo_1,3,3,0,,,,,,,,,0,3,3,0,,,,,,,,,,,,,,,,,,,,,,,,,,,,,,,,,,,,,,,,,,,,,,,,,,,,,42.43756370000028,42.452889199999845,42.87197090000063,,,,,,,,,,,,,,,,,,,,,,,,,,,,,,,,,,,,,,,,,,,028938,001,2025-03-17_15h14.44.897,Estimulo_ICE,2024.2.4,60.0279730356233,2025-03-17 15h14.50.296915 -0300,
Estimulo_9,0,0,0,3.8,-3.8,3.8,-3.8,2.2,-2.2,-2.2,2.2,0,4,4,1,,,,,,,,,,,,,,,,,,,,,,,,,,,,,,,,,0,0,0,6,,,,,,,,,,,,,42.986150000000634,,42.8720744000002,42.87244770000052,,,,,,,,,,,,,,,,,,,,,,,,,,,,,,,,,,,,42.973529800000506,42.986150000000634,42.986150000000634,42.986150000000634,43.175361800000246,43.17581179999979,43.187564300000304,43.187564300000304,43.187564300000304,43.47533199999998,028938,001,2025-03-17_15h14.44.897,Estimulo_ICE,2024.2.4,60.0279730356233,2025-03-17 15h14.50.296915 -0300,
Estimulo_9,1,1,0,2.99999999999999,-2.99999999999999,2.99999999999999,-2.99999999999999,2.2,-2.2,-2.2,2.2,0,4,4,1,,,,,,,,,,,,,,,,,,,,,,,,,,,,,,,,,0,1,1,14,,,,,,,,,,,,,43.48777440000049,,,,,,,,,,,,,,,,,,,,,,,,,,,,,,,,,,,,,,,43.47605960000055,43.48777440000049,43.48777440000049,43.48777440000049,43.77543669999977,43.77592689999983,43.78777009999976,43.78777009999976,43.78777009999976,44.07541070000025,028938,001,2025-03-17_15h14.44.897,Estimulo_ICE,2024.2.4,60.0279730356233,2025-03-17 15h14.50.296915 -0300,
Estimulo_9,2,2,0,2.39999999999999,-2.39999999999999,2.39999999999999,-2.39999999999999,2.2,-2.2,-2.2,2.2,0,4,4,1,,,,,,,,,,,,,,,,,,,,,,,,,,,,,,,,,0,2,2,20,,,,,,,,,,,,,44.08767100000023,,,,,,,,,,,,,,,,,,,,,,,,,,,,,,,,,,,,,,,44.0761349000004,44.08767100000023,44.08767100000023,44.08767100000023,44.3752899000001,44.37578260000009,44.38767689999986,44.38767689999986,44.38767689999986,44.67542030000004,028938,001,2025-03-17_15h14.44.897,Estimulo_ICE,2024.2.4,60.0279730356233,2025-03-17 15h14.50.296915 -0300,
Estimulo_9,3,3,0,3.29999999999999,-3.29999999999999,3.29999999999999,-3.29999999999999,2.2,-2.2,-2.2,2.2,0,4,4,1,,,,,,,,,,,,,,,,,,,,,,,,,,,,,,,,,0,3,3,11,,,,,,,,,,,,,44.687608100000034,,,,,,,,,,,,,,,,,,,,,,,,,,,,,,,,,,,,,,,44.6761475000003,44.687608100000034,44.687608100000034,44.687608100000034,44.97560229999999,44.97609890000058,44.98761319999994,44.98761319999994,44.98761319999994,45.275276600000325,028938,001,2025-03-17_15h14.44.897,Estimulo_ICE,2024.2.4,60.0279730356233,2025-03-17 15h14.50.296915 -0300,
Estimulo_9,4,4,0,2.59999999999999,-2.59999999999999,2.59999999999999,-2.59999999999999,2.2,-2.2,-2.2,2.2,0,4,4,1,,,,,,,,,,,,,,,,,,,,,,,,,,,,,,,,,0,4,4,18,,,,,,,,,,,,,45.28762780000034,,,,,,,,,,,,,,,,,,,,,,,,,,,,,,,,,,,,,,,45.276012100000116,45.28762780000034,45.28762780000034,45.28762780000034,45.575333599999794,45.575828800000636,45.58757909999986,45.58757909999986,45.58757909999986,45.87529379999978,028938,001,2025-03-17_15h14.44.897,Estimulo_ICE,2024.2.4,60.0279730356233,2025-03-17 15h14.50.296915 -0300,
Estimulo_9,5,5,0,3.09999999999999,-3.09999999999999,3.09999999999999,-3.09999999999999,2.2,-2.2,-2.2,2.2,0,4,4,1,,,,,,,,,,,,,,,,,,,,,,,,,,,,,,,,,0,5,5,13,,,,,,,,,,,,,45.88781520000066,,,,,,,,,,,,,,,,,,,,,,,,,,,,,,,,,,,,,,,45.87602330000027,45.88781520000066,45.88781520000066,45.88781520000066,46.188821600000665,46.189085400000295,46.20323110000027,46.20323110000027,46.20323110000027,46.48871289999988,028938,001,2025-03-17_15h14.44.897,Estimulo_ICE,2024.2.4,60.0279730356233,2025-03-17 15h14.50.296915 -0300,
Estimulo_9,6,6,0,4.4,-4.4,4.4,-4.4,2.2,-2.2,-2.2,2.2,0,4,4,1,,,,,,,,,,,,,,,,,,,,,,,,,,,,,,,,,0,6,6,0,,,,,,,,,,,,,46.50316590000057,,,,,,,,,,,,,,,,,,,,,,,,,,,,,,,,,,,,,,,46.48903849999988,46.50316590000057,46.50316590000057,46.50316590000057,46.788706500000444,46.78897190000043,46.80318850000003,46.80318850000003,46.80318850000003,47.08893619999981,028938,001,2025-03-17_15h14.44.897,Estimulo_ICE,2024.2.4,60.0279730356233,2025-03-17 15h14.50.296915 -0300,
Estimulo_9,7,7,0,4.2,-4.2,4.2,-4.2,2.2,-2.2,-2.2,2.2,0,4,4,1,,,,,,,,,,,,,,,,,,,,,,,,,,,,,,,,,0,7,7,2,,,,,,,,,,,,,47.10345510000025,,,,,,,,,,,,,,,,,,,,,,,,,,,,,,,,,,,,,,,47.08934240000053,47.10345510000025,47.10345510000025,47.10345510000025,47.38904290000028,47.38928290000058,47.40340460000061,47.40340460000061,47.40340460000061,47.6887499000004,028938,001,2025-03-17_15h14.44.897,Estimulo_ICE,2024.2.4,60.0279730356233,2025-03-17 15h14.50.296915 -0300,
Estimulo_9,8,8,0,1.99999999999999,-1.99999999999999,1.99999999999999,-1.99999999999999,2.2,-2.2,-2.2,2.2,0,4,4,1,,,,,,,,,,,,,,,,,,,,,,,,,,,,,,,,,0,8,8,24,,,,,,,,,,,,,47.703396599999905,,,,,,,,,,,,,,,,,,,,,,,,,,,,,,,,,,,,,,,47.68908040000042,47.703396599999905,47.703396599999905,47.703396599999905,47.97505640000054,47.975519200000235,47.9873349999998,47.9873349999998,47.9873349999998,48.2749745000001,028938,001,2025-03-17_15h14.44.897,Estimulo_ICE,2024.2.4,60.0279730356233,2025-03-17 15h14.50.296915 -0300,
Estimulo_9,9,9,0,3.39999999999999,-3.39999999999999,3.39999999999999,-3.39999999999999,2.2,-2.2,-2.2,2.2,0,4,4,1,,,,,,,,,,,,,,,,,,,,,,,,,,,,,,,,,0,9,9,10,,,,,,,,,,,,,48.28769629999988,,,,,,,,,,,,,,,,,,,,,,,,,,,,,,,,,,,,,,,48.27567490000001,48.28769629999988,48.28769629999988,48.28769629999988,48.575020199999926,48.575476300000446,48.58757510000032,48.58757510000032,48.58757510000032,48.87488819999999,028938,001,2025-03-17_15h14.44.897,Estimulo_ICE,2024.2.4,60.0279730356233,2025-03-17 15h14.50.296915 -0300,
Estimulo_9,10,10,0,3.7,-3.7,3.7,-3.7,2.2,-2.2,-2.2,2.2,0,4,4,1,,,,,,,,,,,,,,,,,,,,,,,,,,,,,,,,,0,10,10,7,,,,,,,,,,,,,48.887330500000644,,,,,,,,,,,,,,,,,,,,,,,,,,,,,,,,,,,,,,,48.875571200000195,48.887330500000644,48.887330500000644,48.887330500000644,49.17263139999977,49.17291160000059,49.235976400000254,49.235976400000254,49.235976400000254,49.48876610000025,028938,001,2025-03-17_15h14.44.897,Estimulo_ICE,2024.2.4,60.0279730356233,2025-03-17 15h14.50.296915 -0300,
Estimulo_9,11,11,0,1.19999999999999,-1.19999999999998,1.19999999999999,-1.19999999999998,2.2,-2.2,-2.2,2.2,0,4,4,1,,,,,,,,,,,,,,,,,,,,,,,,,,,,,,,,,0,11,11,32,,,,,,,,,,,,,49.50327180000022,,,,,,,,,,,,,,,,,,,,,,,,,,,,,,,,,,,,,,,49.48912280000059,49.50327180000022,49.50327180000022,49.50327180000022,49.788704999999936,49.78894180000043,49.803109100000256,49.803109100000256,49.803109100000256,50.08879410000009,028938,001,2025-03-17_15h14.44.897,Estimulo_ICE,2024.2.4,60.0279730356233,2025-03-17 15h14.50.296915 -0300,
Estimulo_9,12,12,0,3.19999999999999,-3.19999999999999,3.19999999999999,-3.19999999999999,2.2,-2.2,-2.2,2.2,0,4,4,1,,,,,,,,,,,,,,,,,,,,,,,,,,,,,,,,,0,12,12,12,,,,,,,,,,,,,50.103054400000474,,,,,,,,,,,,,,,,,,,,,,,,,,,,,,,,,,,,,,,50.089149700000235,50.103054400000474,50.103054400000474,50.103054400000474,50.38873539999986,50.38897050000014,50.40305480000006,50.40305480000006,50.40305480000006,50.68873590000021,028938,001,2025-03-17_15h14.44.897,Estimulo_ICE,2024.2.4,60.0279730356233,2025-03-17 15h14.50.296915 -0300,
Estimulo_9,13,13,0,2.09999999999999,-2.09999999999999,2.09999999999999,-2.09999999999999,2.2,-2.2,-2.2,2.2,0,4,4,1,,,,,,,,,,,,,,,,,,,,,,,,,,,,,,,,,0,13,13,23,,,,,,,,,,,,,50.703059600000415,,,,,,,,,,,,,,,,,,,,,,,,,,,,,,,,,,,,,,,50.689095100000486,50.703059600000415,50.703059600000415,50.703059600000415,50.98868240000047,50.98892390000037,51.003312100000585,51.003312100000585,51.003312100000585,51.28843760000018,028938,001,2025-03-17_15h14.44.897,Estimulo_ICE,2024.2.4,60.0279730356233,2025-03-17 15h14.50.296915 -0300,
Estimulo_9,14,14,0,2.89999999999999,-2.89999999999999,2.89999999999999,-2.89999999999999,2.2,-2.2,-2.2,2.2,0,4,4,1,,,,,,,,,,,,,,,,,,,,,,,,,,,,,,,,,0,14,14,15,,,,,,,,,,,,,51.30320230000052,,,,,,,,,,,,,,,,,,,,,,,,,,,,,,,,,,,,,,,51.28877130000001,51.30320230000052,51.30320230000052,51.30320230000052,51.58877089999987,51.58900900000026,51.60327570000027,51.60327570000027,51.60327570000027,51.889108000000306,028938,001,2025-03-17_15h14.44.897,Estimulo_ICE,2024.2.4,60.0279730356233,2025-03-17 15h14.50.296915 -0300,
Estimulo_9,15,15,0,2.19999999999999,-2.19999999999999,2.19999999999999,-2.19999999999999,2.2,-2.2,-2.2,2.2,0,4,4,1,,,,,,,,,,,,,,,,,,,,,,,,,,,,,,,,,0,15,15,22,,,,,,,,,,,,,51.90452960000039,,,,,,,,,,,,,,,,,,,,,,,,,,,,,,,,,,,,,,,51.88947670000016,51.90452960000039,51.90452960000039,51.90452960000039,52.188616500000535,52.18885709999995,52.20329500000025,52.20329500000025,52.20329500000025,52.4769852999998,028938,001,2025-03-17_15h14.44.897,Estimulo_ICE,2024.2.4,60.0279730356233,2025-03-17 15h14.50.296915 -0300,
Estimulo_9,16,16,0,2.49999999999999,-2.49999999999999,2.49999999999999,-2.49999999999999,2.2,-2.2,-2.2,2.2,0,4,4,1,,,,,,,,,,,,,,,,,,,,,,,,,,,,,,,,,0,16,16,19,,,,,,,,,,,,,52.48812210000051,,,,,,,,,,,,,,,,,,,,,,,,,,,,,,,,,,,,,,,52.477857900000345,52.48812210000051,52.48812210000051,52.48812210000051,52.78894720000062,52.78921040000023,52.80332129999988,52.80332129999988,52.80332129999988,53.089102099999764,028938,001,2025-03-17_15h14.44.897,Estimulo_ICE,2024.2.4,60.0279730356233,2025-03-17 15h14.50.296915 -0300,
Estimulo_9,17,17,0,1.79999999999999,-1.79999999999999,1.79999999999999,-1.79999999999999,2.2,-2.2,-2.2,2.2,0,4,4,1,,,,,,,,,,,,,,,,,,,,,,,,,,,,,,,,,0,17,17,26,,,,,,,,,,,,,53.103378100000555,,,,,,,,,,,,,,,,,,,,,,,,,,,,,,,,,,,,,,,53.08949540000049,53.103378100000555,53.103378100000555,53.103378100000555,53.37630100000024,53.376848800000516,53.38784530000066,53.38784530000066,53.38784530000066,53.6765163,028938,001,2025-03-17_15h14.44.897,Estimulo_ICE,2024.2.4,60.0279730356233,2025-03-17 15h14.50.296915 -0300,
,18,18,0,1.39999999999999,-1.39999999999998,1.39999999999999,-1.39999999999998,2.2,-2.2,-2.2,2.2,,,,,,,,,,,,,,,,,,,,,,,,,,,,,,,,,,,,,0,18,18,30,,,,,,,,,,,,,53.703500800000256,,,,,,,,,,,,,,,,,,,,,,,,,,,,,,,,,,,,,,,53.6773361000005,53.703500800000256,53.703500800000256,53.703500800000256,,,,,,,,,,,,,,
