LoopName,thisN,thisTrialN,thisRepN,px1,px2,px3,px4,py1,py2,py3,py4,MainLoop.thisRepN,MainLoop.thisTrialN,MainLoop.thisN,MainLoop.thisIndex,loop_1.thisRepN,loop_1.thisTrialN,loop_1.thisN,loop_1.thisIndex,loop_2.thisRepN,loop_2.thisTrialN,loop_2.thisN,loop_2.thisIndex,loop_3.thisRepN,loop_3.thisTrialN,loop_3.thisN,loop_3.thisIndex,loop_4.thisRepN,loop_4.thisTrialN,loop_4.thisN,loop_4.thisIndex,loop_5.thisRepN,loop_5.thisTrialN,loop_5.thisN,loop_5.thisIndex,loop_6.thisRepN,loop_6.thisTrialN,loop_6.thisN,loop_6.thisIndex,loop_7.thisRepN,loop_7.thisTrialN,loop_7.thisN,loop_7.thisIndex,loop_8.thisRepN,loop_8.thisTrialN,loop_8.thisN,loop_8.thisIndex,loop_9.thisRepN,loop_9.thisTrialN,loop_9.thisN,loop_9.thisIndex,loop_10.thisRepN,loop_10.thisTrialN,loop_10.thisN,loop_10.thisIndex,loop_11.thisRepN,loop_11.thisTrialN,loop_11.thisN,loop_11.thisIndex,loop_12.thisRepN,loop_12.thisTrialN,loop_12.thisN,loop_12.thisIndex,thisRow.t,notes,codigo.started,codigo.stopped,trial.started,image.started,image_2.started,polygon.started,trial.stopped,trial_2.started,image_3.started,image_4.started,polygon_2.started,trial_2.stopped,_intertrial_interval_.started,polygon_5.started,_intertrial_interval_.stopped,trial_3.started,image_5.started,image_6.started,polygon_3.started,trial_3.stopped,trial_4.started,image_7.started,image_8.started,polygon_4.started,image_7.stopped,image_8.stopped,polygon_4.stopped,trial_4.stopped,image_5.stopped,image_6.stopped,polygon_3.stopped,participant,session,date,expName,psychopyVersion,frameRate,expStart,
Estimulo_2,0,0,0,1.1,-1.1,1.1,-1.1,2.2,-2.2,-2.2,2.2,0,0,0,2,,,,,0,0,0,0,,,,,,,,,,,,,,,,,,,,,,,,,,,,,,,,,,,,,,,,,0.06256500000017695,,0.02247269999998025,0.02307890000020052,0.04707959999996092,0.06256500000017695,0.06256500000017695,0.06256500000017695,0.33111860000008164,0.3313327000000754,0.34566510000013295,0.34566510000013295,0.34566510000013295,0.631134799999927,,,,,,,,,,,,,,,,,,,,113546,001,2025-03-17_14h41.21.467,Estimulo_ICE,2024.2.4,60.02199205792184,2025-03-17 14h41.26.680100 -0300,
Estimulo_2,1,1,0,1.2,-1.2,1.2,-1.2,2.2,-2.2,-2.2,2.2,0,0,0,2,,,,,0,1,1,1,,,,,,,,,,,,,,,,,,,,,,,,,,,,,,,,,,,,,,,,,0.6456433000003017,,,,0.6314765000001898,0.6456433000003017,0.6456433000003017,0.6456433000003017,0.9310969000002842,0.931329900000037,0.9455891000002339,0.9455891000002339,0.9455891000002339,1.2310565000002498,,,,,,,,,,,,,,,,,,,,113546,001,2025-03-17_14h41.21.467,Estimulo_ICE,2024.2.4,60.02199205792184,2025-03-17 14h41.26.680100 -0300,
Estimulo_2,2,2,0,1.3,-1.3,1.3,-1.3,2.2,-2.2,-2.2,2.2,0,0,0,2,,,,,0,2,2,2,,,,,,,,,,,,,,,,,,,,,,,,,,,,,,,,,,,,,,,,,1.245655500000339,,,,1.2313975000001847,1.245655500000339,1.245655500000339,1.245655500000339,1.531138700000156,1.531372200000078,1.5458057000000736,1.5458057000000736,1.5458057000000736,1.831365999999889,,,,,,,,,,,,,,,,,,,,113546,001,2025-03-17_14h41.21.467,Estimulo_ICE,2024.2.4,60.02199205792184,2025-03-17 14h41.26.680100 -0300,
Estimulo_2,3,3,0,1.4,-1.4,1.4,-1.4,2.2,-2.2,-2.2,2.2,0,0,0,2,,,,,0,3,3,3,,,,,,,,,,,,,,,,,,,,,,,,,,,,,,,,,,,,,,,,,1.8455204000001686,,,,1.83170999999993,1.8455204000001686,1.8455204000001686,1.8455204000001686,2.138076700000056,2.1387493000001996,2.147464200000286,2.147464200000286,2.147464200000286,2.431636499999968,,,,,,,,,,,,,,,,,,,,113546,001,2025-03-17_14h41.21.467,Estimulo_ICE,2024.2.4,60.02199205792184,2025-03-17 14h41.26.680100 -0300,
Estimulo_2,4,4,0,1.5,-1.5,1.5,-1.5,2.2,-2.2,-2.2,2.2,0,0,0,2,,,,,0,4,4,4,,,,,,,,,,,,,,,,,,,,,,,,,,,,,,,,,,,,,,,,,2.4457142000001113,,,,2.4320273000003,2.4457142000001113,2.4457142000001113,2.4457142000001113,2.731584600000133,2.7318515000001753,2.7457776999999624,2.7457776999999624,2.7457776999999624,3.030941800000164,,,,,,,,,,,,,,,,,,,,113546,001,2025-03-17_14h41.21.467,Estimulo_ICE,2024.2.4,60.02199205792184,2025-03-17 14h41.26.680100 -0300,
Estimulo_2,5,5,0,1.6,-1.6,1.6,-1.6,2.2,-2.2,-2.2,2.2,0,0,0,2,,,,,0,5,5,5,,,,,,,,,,,,,,,,,,,,,,,,,,,,,,,,,,,,,,,,,3.0456585000001724,,,,3.031285900000057,3.0456585000001724,3.0456585000001724,3.0456585000001724,3.331166200000098,3.331400300000041,3.345580200000313,3.345580200000313,3.345580200000313,3.631235800000013,,,,,,,,,,,,,,,,,,,,113546,001,2025-03-17_14h41.21.467,Estimulo_ICE,2024.2.4,60.02199205792184,2025-03-17 14h41.26.680100 -0300,
Estimulo_2,6,6,0,1.7,-1.7,1.7,-1.7,2.2,-2.2,-2.2,2.2,0,0,0,2,,,,,0,6,6,6,,,,,,,,,,,,,,,,,,,,,,,,,,,,,,,,,,,,,,,,,3.6455973000001904,,,,3.631579000000329,3.6455973000001904,3.6455973000001904,3.6455973000001904,3.930980399999953,3.9312230999998974,3.9456992000000355,3.9456992000000355,3.9456992000000355,4.231151700000282,,,,,,,,,,,,,,,,,,,,113546,001,2025-03-17_14h41.21.467,Estimulo_ICE,2024.2.4,60.02199205792184,2025-03-17 14h41.26.680100 -0300,
Estimulo_2,7,7,0,1.8,-1.8,1.8,-1.8,2.2,-2.2,-2.2,2.2,0,0,0,2,,,,,0,7,7,7,,,,,,,,,,,,,,,,,,,,,,,,,,,,,,,,,,,,,,,,,4.245597099999941,,,,4.231494500000281,4.245597099999941,4.245597099999941,4.245597099999941,4.531233200000315,4.531469200000174,4.545513200000187,4.545513200000187,4.545513200000187,4.830987499999992,,,,,,,,,,,,,,,,,,,,113546,001,2025-03-17_14h41.21.467,Estimulo_ICE,2024.2.4,60.02199205792184,2025-03-17 14h41.26.680100 -0300,
Estimulo_2,8,8,0,1.9,-1.9,1.9,-1.9,2.2,-2.2,-2.2,2.2,0,0,0,2,,,,,0,8,8,8,,,,,,,,,,,,,,,,,,,,,,,,,,,,,,,,,,,,,,,,,4.845677199999955,,,,4.831328400000075,4.845677199999955,4.845677199999955,4.845677199999955,5.134604500000023,5.135061299999961,5.146450499999901,5.146450499999901,5.146450499999901,5.431928200000129,,,,,,,,,,,,,,,,,,,,113546,001,2025-03-17_14h41.21.467,Estimulo_ICE,2024.2.4,60.02199205792184,2025-03-17 14h41.26.680100 -0300,
Estimulo_2,9,9,0,2,-2,2,-2,2.2,-2.2,-2.2,2.2,0,0,0,2,,,,,0,9,9,9,,,,,,,,,,,,,,,,,,,,,,,,,,,,,,,,,,,,,,,,,5.445802199999889,,,,5.432357400000001,5.445802199999889,5.445802199999889,5.445802199999889,5.731007800000043,5.731242900000325,5.745607100000143,5.745607100000143,5.745607100000143,6.031862900000306,,,,,,,,,,,,,,,,,,,,113546,001,2025-03-17_14h41.21.467,Estimulo_ICE,2024.2.4,60.02199205792184,2025-03-17 14h41.26.680100 -0300,
Estimulo_2,10,10,0,2.1,-2.1,2.1,-2.1,2.2,-2.2,-2.2,2.2,0,0,0,2,,,,,0,10,10,10,,,,,,,,,,,,,,,,,,,,,,,,,,,,,,,,,,,,,,,,,6.045558000000256,,,,6.0322282000001906,6.045558000000256,6.045558000000256,6.045558000000256,6.331130100000337,6.3313634000001,6.34573760000012,6.34573760000012,6.34573760000012,6.631188199999997,,,,,,,,,,,,,,,,,,,,113546,001,2025-03-17_14h41.21.467,Estimulo_ICE,2024.2.4,60.02199205792184,2025-03-17 14h41.26.680100 -0300,
Estimulo_2,11,11,0,2.2,-2.2,2.2,-2.2,2.2,-2.2,-2.2,2.2,0,0,0,2,,,,,0,11,11,11,,,,,,,,,,,,,,,,,,,,,,,,,,,,,,,,,,,,,,,,,6.645552800000132,,,,6.631532100000186,6.645552800000132,6.645552800000132,6.645552800000132,6.931169700000282,6.931451400000242,6.945428200000151,6.945428200000151,6.945428200000151,7.2311070000000655,,,,,,,,,,,,,,,,,,,,113546,001,2025-03-17_14h41.21.467,Estimulo_ICE,2024.2.4,60.02199205792184,2025-03-17 14h41.26.680100 -0300,
Estimulo_2,12,12,0,2.3,-2.3,2.3,-2.3,2.2,-2.2,-2.2,2.2,0,0,0,2,,,,,0,12,12,12,,,,,,,,,,,,,,,,,,,,,,,,,,,,,,,,,,,,,,,,,7.245390500000212,,,,7.2314524000003075,7.245390500000212,7.245390500000212,7.245390500000212,7.531084400000054,7.531318400000146,7.545729700000265,7.545729700000265,7.545729700000265,7.831124600000294,,,,,,,,,,,,,,,,,,,,113546,001,2025-03-17_14h41.21.467,Estimulo_ICE,2024.2.4,60.02199205792184,2025-03-17 14h41.26.680100 -0300,
Estimulo_2,13,13,0,2.4,-2.4,2.4,-2.4,2.2,-2.2,-2.2,2.2,0,0,0,2,,,,,0,13,13,13,,,,,,,,,,,,,,,,,,,,,,,,,,,,,,,,,,,,,,,,,7.845274000000245,,,,7.831468500000028,7.845274000000245,7.845274000000245,7.845274000000245,8.130977900000289,8.131212700000106,8.145580299999892,8.145580299999892,8.145580299999892,8.43104190000031,,,,,,,,,,,,,,,,,,,,113546,001,2025-03-17_14h41.21.467,Estimulo_ICE,2024.2.4,60.02199205792184,2025-03-17 14h41.26.680100 -0300,
Estimulo_2,14,14,0,2.5,-2.5,2.5,-2.5,2.2,-2.2,-2.2,2.2,0,0,0,2,,,,,0,14,14,14,,,,,,,,,,,,,,,,,,,,,,,,,,,,,,,,,,,,,,,,,8.445663800000148,,,,8.431391200000235,8.445663800000148,8.445663800000148,8.445663800000148,8.731107699999939,8.731339700000262,8.74569509999992,8.74569509999992,8.74569509999992,9.031580900000336,,,,,,,,,,,,,,,,,,,,113546,001,2025-03-17_14h41.21.467,Estimulo_ICE,2024.2.4,60.02199205792184,2025-03-17 14h41.26.680100 -0300,
Estimulo_2,15,15,0,2.6,-2.6,2.6,-2.6,2.2,-2.2,-2.2,2.2,0,0,0,2,,,,,0,15,15,15,,,,,,,,,,,,,,,,,,,,,,,,,,,,,,,,,,,,,,,,,9.04537019999998,,,,9.03194880000001,9.04537019999998,9.04537019999998,9.04537019999998,9.330920500000047,9.331157699999949,9.345602300000337,9.345602300000337,9.345602300000337,9.631184600000324,,,,,,,,,,,,,,,,,,,,113546,001,2025-03-17_14h41.21.467,Estimulo_ICE,2024.2.4,60.02199205792184,2025-03-17 14h41.26.680100 -0300,
Estimulo_2,16,16,0,2.7,-2.7,2.7,-2.7,2.2,-2.2,-2.2,2.2,0,0,0,2,,,,,0,16,16,16,,,,,,,,,,,,,,,,,,,,,,,,,,,,,,,,,,,,,,,,,9.64552249999997,,,,9.631531300000006,9.64552249999997,9.64552249999997,9.64552249999997,9.930820600000061,9.931055500000184,9.945488900000328,9.945488900000328,9.945488900000328,10.231051300000217,,,,,,,,,,,,,,,,,,,,113546,001,2025-03-17_14h41.21.467,Estimulo_ICE,2024.2.4,60.02199205792184,2025-03-17 14h41.26.680100 -0300,
Estimulo_2,17,17,0,2.8,-2.8,2.8,-2.8,2.2,-2.2,-2.2,2.2,0,0,0,2,,,,,0,17,17,17,,,,,,,,,,,,,,,,,,,,,,,,,,,,,,,,,,,,,,,,,10.245568800000001,,,,10.231400399999984,10.245568800000001,10.245568800000001,10.245568800000001,10.53111250000029,10.531347900000128,10.545356999999967,10.545356999999967,10.545356999999967,10.830981699999938,,,,,,,,,,,,,,,,,,,,113546,001,2025-03-17_14h41.21.467,Estimulo_ICE,2024.2.4,60.02199205792184,2025-03-17 14h41.26.680100 -0300,
Estimulo_2,18,18,0,2.9,-2.9,2.9,-2.9,2.2,-2.2,-2.2,2.2,0,0,0,2,,,,,0,18,18,18,,,,,,,,,,,,,,,,,,,,,,,,,,,,,,,,,,,,,,,,,10.845532900000308,,,,10.831331700000192,10.845532900000308,10.845532900000308,10.845532900000308,11.131115300000147,11.131350099999963,11.145512500000223,11.145512500000223,11.145512500000223,11.431135600000289,,,,,,,,,,,,,,,,,,,,113546,001,2025-03-17_14h41.21.467,Estimulo_ICE,2024.2.4,60.02199205792184,2025-03-17 14h41.26.680100 -0300,
Estimulo_2,19,19,0,3,-3,3,-3,2.2,-2.2,-2.2,2.2,0,0,0,2,,,,,0,19,19,19,,,,,,,,,,,,,,,,,,,,,,,,,,,,,,,,,,,,,,,,,11.44546500000024,,,,11.431478100000277,11.44546500000024,11.44546500000024,11.44546500000024,11.731066600000304,11.731298800000332,11.745623700000124,11.745623700000124,11.745623700000124,12.03106680000019,,,,,,,,,,,,,,,,,,,,113546,001,2025-03-17_14h41.21.467,Estimulo_ICE,2024.2.4,60.02199205792184,2025-03-17 14h41.26.680100 -0300,
Estimulo_2,20,20,0,3.1,-3.1,3.1,-3.1,2.2,-2.2,-2.2,2.2,0,0,0,2,,,,,0,20,20,20,,,,,,,,,,,,,,,,,,,,,,,,,,,,,,,,,,,,,,,,,12.04585300000008,,,,12.031408700000156,12.04585300000008,12.04585300000008,12.04585300000008,12.331094099999973,12.331327599999895,12.345389300000079,12.345389300000079,12.345389300000079,12.630983400000332,,,,,,,,,,,,,,,,,,,,113546,001,2025-03-17_14h41.21.467,Estimulo_ICE,2024.2.4,60.02199205792184,2025-03-17 14h41.26.680100 -0300,
Estimulo_2,21,21,0,3.2,-3.2,3.2,-3.2,2.2,-2.2,-2.2,2.2,0,0,0,2,,,,,0,21,21,21,,,,,,,,,,,,,,,,,,,,,,,,,,,,,,,,,,,,,,,,,12.64555240000027,,,,12.631326600000193,12.64555240000027,12.64555240000027,12.64555240000027,12.93111880000015,12.931352600000082,12.945537200000217,12.945537200000217,12.945537200000217,13.231062400000155,,,,,,,,,,,,,,,,,,,,113546,001,2025-03-17_14h41.21.467,Estimulo_ICE,2024.2.4,60.02199205792184,2025-03-17 14h41.26.680100 -0300,
Estimulo_2,22,22,0,3.3,-3.3,3.3,-3.3,2.2,-2.2,-2.2,2.2,0,0,0,2,,,,,0,22,22,22,,,,,,,,,,,,,,,,,,,,,,,,,,,,,,,,,,,,,,,,,13.245559700000285,,,,13.231406700000207,13.245559700000285,13.245559700000285,13.245559700000285,13.53105880000021,13.531293700000333,13.545663400000194,13.545663400000194,13.545663400000194,13.831099900000027,,,,,,,,,,,,,,,,,,,,113546,001,2025-03-17_14h41.21.467,Estimulo_ICE,2024.2.4,60.02199205792184,2025-03-17 14h41.26.680100 -0300,
Estimulo_2,23,23,0,3.4,-3.4,3.4,-3.4,2.2,-2.2,-2.2,2.2,0,0,0,2,,,,,0,23,23,23,,,,,,,,,,,,,,,,,,,,,,,,,,,,,,,,,,,,,,,,,13.845380700000078,,,,13.831447300000036,13.845380700000078,13.845380700000078,13.845380700000078,14.13099420000026,14.13122790000034,14.145352900000034,14.145352900000034,14.145352900000034,14.4310246,,,,,,,,,,,,,,,,,,,,113546,001,2025-03-17_14h41.21.467,Estimulo_ICE,2024.2.4,60.02199205792184,2025-03-17 14h41.26.680100 -0300,
Estimulo_2,24,24,0,3.5,-3.5,3.5,-3.5,2.2,-2.2,-2.2,2.2,0,0,0,2,,,,,0,24,24,24,,,,,,,,,,,,,,,,,,,,,,,,,,,,,,,,,,,,,,,,,14.44553470000028,,,,14.431367000000137,14.44553470000028,14.44553470000028,14.44553470000028,14.731118100000003,14.731352700000116,14.745432100000016,14.745432100000016,14.745432100000016,15.031107499999962,,,,,,,,,,,,,,,,,,,,113546,001,2025-03-17_14h41.21.467,Estimulo_ICE,2024.2.4,60.02199205792184,2025-03-17 14h41.26.680100 -0300,
Estimulo_2,25,25,0,3.6,-3.6,3.6,-3.6,2.2,-2.2,-2.2,2.2,0,0,0,2,,,,,0,25,25,25,,,,,,,,,,,,,,,,,,,,,,,,,,,,,,,,,,,,,,,,,15.045533200000136,,,,15.031453500000225,15.045533200000136,15.045533200000136,15.045533200000136,15.33550520000017,15.336046400000214,15.346816199999921,15.346816199999921,15.346816199999921,15.635449700000208,,,,,,,,,,,,,,,,,,,,113546,001,2025-03-17_14h41.21.467,Estimulo_ICE,2024.2.4,60.02199205792184,2025-03-17 14h41.26.680100 -0300,
Estimulo_2,26,26,0,3.7,-3.7,3.7,-3.7,2.2,-2.2,-2.2,2.2,0,0,0,2,,,,,0,26,26,26,,,,,,,,,,,,,,,,,,,,,,,,,,,,,,,,,,,,,,,,,15.647023900000022,,,,15.636250800000198,15.647023900000022,15.647023900000022,15.647023900000022,15.935283900000286,15.935823400000118,15.946983300000284,15.946983300000284,15.946983300000284,16.232046999999966,,,,,,,,,,,,,,,,,,,,113546,001,2025-03-17_14h41.21.467,Estimulo_ICE,2024.2.4,60.02199205792184,2025-03-17 14h41.26.680100 -0300,
Estimulo_2,27,27,0,3.8,-3.8,3.8,-3.8,2.2,-2.2,-2.2,2.2,0,0,0,2,,,,,0,27,27,27,,,,,,,,,,,,,,,,,,,,,,,,,,,,,,,,,,,,,,,,,16.245890900000177,,,,16.232506600000306,16.245890900000177,16.245890900000177,16.245890900000177,16.532074400000056,16.532399500000338,16.545769199999995,16.545769199999995,16.545769199999995,16.831039800000326,,,,,,,,,,,,,,,,,,,,113546,001,2025-03-17_14h41.21.467,Estimulo_ICE,2024.2.4,60.02199205792184,2025-03-17 14h41.26.680100 -0300,
Estimulo_2,28,28,0,3.9,-3.9,3.9,-3.9,2.2,-2.2,-2.2,2.2,0,0,0,2,,,,,0,28,28,28,,,,,,,,,,,,,,,,,,,,,,,,,,,,,,,,,,,,,,,,,16.84547109999994,,,,16.831392999999935,16.84547109999994,16.84547109999994,16.84547109999994,17.13091220000024,17.13114540000015,17.145669100000305,17.145669100000305,17.145669100000305,17.43110700000034,,,,,,,,,,,,,,,,,,,,113546,001,2025-03-17_14h41.21.467,Estimulo_ICE,2024.2.4,60.02199205792184,2025-03-17 14h41.26.680100 -0300,
Estimulo_2,29,29,0,4,-4,4,-4,2.2,-2.2,-2.2,2.2,0,0,0,2,,,,,0,29,29,29,,,,,,,,,,,,,,,,,,,,,,,,,,,,,,,,,,,,,,,,,17.445571900000232,,,,17.431537800000115,17.445571900000232,17.445571900000232,17.445571900000232,17.731076900000062,17.73131199999989,17.745496900000035,17.745496900000035,17.745496900000035,18.03109960000029,,,,,,,,,,,,,,,,,,,,113546,001,2025-03-17_14h41.21.467,Estimulo_ICE,2024.2.4,60.02199205792184,2025-03-17 14h41.26.680100 -0300,
Estimulo_2,30,30,0,4.1,-4.1,4.1,-4.1,2.2,-2.2,-2.2,2.2,0,0,0,2,,,,,0,30,30,30,,,,,,,,,,,,,,,,,,,,,,,,,,,,,,,,,,,,,,,,,18.045464100000117,,,,18.03144390000034,18.045464100000117,18.045464100000117,18.045464100000117,18.331050000000232,18.33128620000025,18.34564870000031,18.34564870000031,18.34564870000031,18.631038700000317,,,,,,,,,,,,,,,,,,,,113546,001,2025-03-17_14h41.21.467,Estimulo_ICE,2024.2.4,60.02199205792184,2025-03-17 14h41.26.680100 -0300,
Estimulo_2,31,31,0,4.2,-4.2,4.2,-4.2,2.2,-2.2,-2.2,2.2,0,0,0,2,,,,,0,31,31,31,,,,,,,,,,,,,,,,,,,,,,,,,,,,,,,,,,,,,,,,,18.645508000000063,,,,18.631384900000285,18.645508000000063,18.645508000000063,18.645508000000063,18.93401760000006,18.9342386000003,18.945376600000145,18.945376600000145,18.945376600000145,19.231024100000013,,,,,,,,,,,,,,,,,,,,113546,001,2025-03-17_14h41.21.467,Estimulo_ICE,2024.2.4,60.02199205792184,2025-03-17 14h41.26.680100 -0300,
Estimulo_2,32,32,0,4.3,-4.3,4.3,-4.3,2.2,-2.2,-2.2,2.2,0,0,0,2,,,,,0,32,32,32,,,,,,,,,,,,,,,,,,,,,,,,,,,,,,,,,,,,,,,,,19.24551960000008,,,,19.231363899999906,19.24551960000008,19.24551960000008,19.24551960000008,19.530963600000177,19.531195000000025,19.54564980000032,19.54564980000032,19.54564980000032,19.830986100000246,,,,,,,,,,,,,,,,,,,,113546,001,2025-03-17_14h41.21.467,Estimulo_ICE,2024.2.4,60.02199205792184,2025-03-17 14h41.26.680100 -0300,
Estimulo_2,33,33,0,4.4,-4.4,4.4,-4.4,2.2,-2.2,-2.2,2.2,0,0,0,2,,,,,0,33,33,33,,,,,,,,,,,,,,,,,,,,,,,,,,,,,,,,,,,,,,,,,19.845552000000225,,,,19.831328700000086,19.845552000000225,19.845552000000225,19.845552000000225,20.130885900000067,20.13110379999989,20.145185200000014,20.145185200000014,20.145185200000014,20.431100000000242,,,,,,,,,,,,,,,,,,,,113546,001,2025-03-17_14h41.21.467,Estimulo_ICE,2024.2.4,60.02199205792184,2025-03-17 14h41.26.680100 -0300,
Estimulo_2,0,0,0,,,,,,,,,0,0,0,2,,,,,,,,,,,,,,,,,,,,,,,,,,,,,,,,,,,,,,,,,,,,,,,,,,,,,,,,,,,,,,,20.55032170000004,20.561779300000126,20.93594370000028,,,,,,,,,,,,,,,,,113546,001,2025-03-17_14h41.21.467,Estimulo_ICE,2024.2.4,60.02199205792184,2025-03-17 14h41.26.680100 -0300,
Estimulo_5,0,0,0,4.4,-4.4,4.4,-4.4,2.2,-2.2,-2.2,2.2,0,1,1,4,,,,,,,,,,,,,,,,,0,0,0,0,,,,,,,,,,,,,,,,,,,,,,,,,,,,,21.028374500000155,,20.936186200000066,20.936866700000337,,,,,,,,,,,,,,21.018359200000305,21.028374500000155,21.028374500000155,21.028374500000155,21.23654179999994,21.237114699999893,21.246123200000056,21.246123200000056,21.246123200000056,21.545368600000074,21.545368600000074,21.545368600000074,21.531701899999916,,,,113546,001,2025-03-17_14h41.21.467,Estimulo_ICE,2024.2.4,60.02199205792184,2025-03-17 14h41.26.680100 -0300,
Estimulo_5,1,1,0,4.3,-4.3,4.3,-4.3,2.2,-2.2,-2.2,2.2,0,1,1,4,,,,,,,,,,,,,,,,,0,1,1,1,,,,,,,,,,,,,,,,,,,,,,,,,,,,,21.545368600000074,,,,,,,,,,,,,,,,,21.532092100000227,21.545368600000074,21.545368600000074,21.545368600000074,21.83149080000021,21.831762100000105,21.845539599999938,21.845539599999938,21.845539599999938,22.145348000000013,22.145348000000013,22.145348000000013,22.131471000000147,21.845539599999938,21.845539599999938,21.845539599999938,113546,001,2025-03-17_14h41.21.467,Estimulo_ICE,2024.2.4,60.02199205792184,2025-03-17 14h41.26.680100 -0300,
Estimulo_5,2,2,0,4.2,-4.2,4.2,-4.2,2.2,-2.2,-2.2,2.2,0,1,1,4,,,,,,,,,,,,,,,,,0,2,2,2,,,,,,,,,,,,,,,,,,,,,,,,,,,,,22.145348000000013,,,,,,,,,,,,,,,,,22.131837500000074,22.145348000000013,22.145348000000013,22.145348000000013,22.4314131000001,22.431664300000193,22.445369500000197,22.445369500000197,22.445369500000197,22.745583200000056,22.745583200000056,22.745583200000056,22.73138229999995,22.445369500000197,22.445369500000197,22.445369500000197,113546,001,2025-03-17_14h41.21.467,Estimulo_ICE,2024.2.4,60.02199205792184,2025-03-17 14h41.26.680100 -0300,
Estimulo_5,3,3,0,4.1,-4.1,4.1,-4.1,2.2,-2.2,-2.2,2.2,0,1,1,4,,,,,,,,,,,,,,,,,0,3,3,3,,,,,,,,,,,,,,,,,,,,,,,,,,,,,22.745583200000056,,,,,,,,,,,,,,,,,22.731746400000247,22.745583200000056,22.745583200000056,22.745583200000056,23.03143399999999,23.031694400000106,23.045452000000296,23.045452000000296,23.045452000000296,23.345408700000007,23.345408700000007,23.345408700000007,23.331558200000018,23.045452000000296,23.045452000000296,23.045452000000296,113546,001,2025-03-17_14h41.21.467,Estimulo_ICE,2024.2.4,60.02199205792184,2025-03-17 14h41.26.680100 -0300,
Estimulo_5,4,4,0,4,-4,4,-4,2.2,-2.2,-2.2,2.2,0,1,1,4,,,,,,,,,,,,,,,,,0,4,4,4,,,,,,,,,,,,,,,,,,,,,,,,,,,,,23.345408700000007,,,,,,,,,,,,,,,,,23.331924399999934,23.345408700000007,23.345408700000007,23.345408700000007,23.63137050000023,23.631622000000334,23.645446300000003,23.645446300000003,23.645446300000003,23.945453100000123,23.945453100000123,23.945453100000123,23.931853200000205,23.645446300000003,23.645446300000003,23.645446300000003,113546,001,2025-03-17_14h41.21.467,Estimulo_ICE,2024.2.4,60.02199205792184,2025-03-17 14h41.26.680100 -0300,
Estimulo_5,5,5,0,3.9,-3.9,3.9,-3.9,2.2,-2.2,-2.2,2.2,0,1,1,4,,,,,,,,,,,,,,,,,0,5,5,5,,,,,,,,,,,,,,,,,,,,,,,,,,,,,23.945453100000123,,,,,,,,,,,,,,,,,23.932225100000323,23.945453100000123,23.945453100000123,23.945453100000123,24.231398100000206,24.231650600000194,24.24544680000008,24.24544680000008,24.24544680000008,24.545348999999987,24.545348999999987,24.545348999999987,24.53138059999992,24.24544680000008,24.24544680000008,24.24544680000008,113546,001,2025-03-17_14h41.21.467,Estimulo_ICE,2024.2.4,60.02199205792184,2025-03-17 14h41.26.680100 -0300,
Estimulo_5,6,6,0,3.8,-3.8,3.8,-3.8,2.2,-2.2,-2.2,2.2,0,1,1,4,,,,,,,,,,,,,,,,,0,6,6,6,,,,,,,,,,,,,,,,,,,,,,,,,,,,,24.545348999999987,,,,,,,,,,,,,,,,,24.531749000000218,24.545348999999987,24.545348999999987,24.545348999999987,24.831250700000055,24.831501000000117,24.8454227000002,24.8454227000002,24.8454227000002,25.14520850000008,25.14520850000008,25.14520850000008,25.1315153999999,24.8454227000002,24.8454227000002,24.8454227000002,113546,001,2025-03-17_14h41.21.467,Estimulo_ICE,2024.2.4,60.02199205792184,2025-03-17 14h41.26.680100 -0300,
Estimulo_5,7,7,0,3.7,-3.7,3.7,-3.7,2.2,-2.2,-2.2,2.2,0,1,1,4,,,,,,,,,,,,,,,,,0,7,7,7,,,,,,,,,,,,,,,,,,,,,,,,,,,,,25.14520850000008,,,,,,,,,,,,,,,,,25.13188190000028,25.14520850000008,25.14520850000008,25.14520850000008,25.431173500000114,25.43142510000007,25.445501200000308,25.445501200000308,25.445501200000308,25.745317700000214,25.745317700000214,25.745317700000214,25.73136710000017,25.445501200000308,25.445501200000308,25.445501200000308,113546,001,2025-03-17_14h41.21.467,Estimulo_ICE,2024.2.4,60.02199205792184,2025-03-17 14h41.26.680100 -0300,
Estimulo_5,8,8,0,3.6,-3.6,3.6,-3.6,2.2,-2.2,-2.2,2.2,0,1,1,4,,,,,,,,,,,,,,,,,0,8,8,8,,,,,,,,,,,,,,,,,,,,,,,,,,,,,25.745317700000214,,,,,,,,,,,,,,,,,25.73173450000013,25.745317700000214,25.745317700000214,25.745317700000214,26.03142170000001,26.031672999999955,26.0451994,26.0451994,26.0451994,26.345440900000085,26.345440900000085,26.345440900000085,26.331270600000153,26.0451994,26.0451994,26.0451994,113546,001,2025-03-17_14h41.21.467,Estimulo_ICE,2024.2.4,60.02199205792184,2025-03-17 14h41.26.680100 -0300,
Estimulo_5,9,9,0,3.5,-3.5,3.5,-3.5,2.2,-2.2,-2.2,2.2,0,1,1,4,,,,,,,,,,,,,,,,,0,9,9,9,,,,,,,,,,,,,,,,,,,,,,,,,,,,,26.345440900000085,,,,,,,,,,,,,,,,,26.331638999999996,26.345440900000085,26.345440900000085,26.345440900000085,26.631327900000088,26.631576300000233,26.645296500000313,26.645296500000313,26.645296500000313,26.94557840000016,26.94557840000016,26.94557840000016,26.931292900000244,26.645296500000313,26.645296500000313,26.645296500000313,113546,001,2025-03-17_14h41.21.467,Estimulo_ICE,2024.2.4,60.02199205792184,2025-03-17 14h41.26.680100 -0300,
Estimulo_5,10,10,0,3.39999999999999,-3.39999999999999,3.39999999999999,-3.39999999999999,2.2,-2.2,-2.2,2.2,0,1,1,4,,,,,,,,,,,,,,,,,0,10,10,10,,,,,,,,,,,,,,,,,,,,,,,,,,,,,26.94557840000016,,,,,,,,,,,,,,,,,26.93166139999994,26.94557840000016,26.94557840000016,26.94557840000016,27.231319500000154,27.231569800000216,27.245422800000142,27.245422800000142,27.245422800000142,27.545511400000123,27.545511400000123,27.545511400000123,27.531383000000005,27.245422800000142,27.245422800000142,27.245422800000142,113546,001,2025-03-17_14h41.21.467,Estimulo_ICE,2024.2.4,60.02199205792184,2025-03-17 14h41.26.680100 -0300,
Estimulo_5,11,11,0,3.29999999999999,-3.29999999999999,3.29999999999999,-3.29999999999999,2.2,-2.2,-2.2,2.2,0,1,1,4,,,,,,,,,,,,,,,,,0,11,11,11,,,,,,,,,,,,,,,,,,,,,,,,,,,,,27.545511400000123,,,,,,,,,,,,,,,,,27.531738300000143,27.545511400000123,27.545511400000123,27.545511400000123,27.831405299999915,27.831655500000124,27.84537309999996,27.84537309999996,27.84537309999996,28.14552350000031,28.14552350000031,28.14552350000031,28.131071799999972,27.84537309999996,27.84537309999996,27.84537309999996,113546,001,2025-03-17_14h41.21.467,Estimulo_ICE,2024.2.4,60.02199205792184,2025-03-17 14h41.26.680100 -0300,
Estimulo_5,12,12,0,3.19999999999999,-3.19999999999999,3.19999999999999,-3.19999999999999,2.2,-2.2,-2.2,2.2,0,1,1,4,,,,,,,,,,,,,,,,,0,12,12,12,,,,,,,,,,,,,,,,,,,,,,,,,,,,,28.14552350000031,,,,,,,,,,,,,,,,,28.13141570000016,28.14552350000031,28.14552350000031,28.14552350000031,28.43135510000002,28.431608200000028,28.445403799999895,28.445403799999895,28.445403799999895,28.745494600000256,28.745494600000256,28.745494600000256,28.731244099999913,28.445403799999895,28.445403799999895,28.445403799999895,113546,001,2025-03-17_14h41.21.467,Estimulo_ICE,2024.2.4,60.02199205792184,2025-03-17 14h41.26.680100 -0300,
Estimulo_5,13,13,0,3.09999999999999,-3.09999999999999,3.09999999999999,-3.09999999999999,2.2,-2.2,-2.2,2.2,0,1,1,4,,,,,,,,,,,,,,,,,0,13,13,13,,,,,,,,,,,,,,,,,,,,,,,,,,,,,28.745494600000256,,,,,,,,,,,,,,,,,28.731611800000337,28.745494600000256,28.745494600000256,28.745494600000256,29.031188200000088,29.031441600000107,29.04542160000028,29.04542160000028,29.04542160000028,29.345466900000247,29.345466900000247,29.345466900000247,29.3313876000002,29.04542160000028,29.04542160000028,29.04542160000028,113546,001,2025-03-17_14h41.21.467,Estimulo_ICE,2024.2.4,60.02199205792184,2025-03-17 14h41.26.680100 -0300,
Estimulo_5,14,14,0,2.99999999999999,-2.99999999999999,2.99999999999999,-2.99999999999999,2.2,-2.2,-2.2,2.2,0,1,1,4,,,,,,,,,,,,,,,,,0,14,14,14,,,,,,,,,,,,,,,,,,,,,,,,,,,,,29.345466900000247,,,,,,,,,,,,,,,,,29.33174280000003,29.345466900000247,29.345466900000247,29.345466900000247,29.631319300000087,29.631570400000328,29.64549010000019,29.64549010000019,29.64549010000019,29.945343800000046,29.945343800000046,29.945343800000046,29.931305099999918,29.64549010000019,29.64549010000019,29.64549010000019,113546,001,2025-03-17_14h41.21.467,Estimulo_ICE,2024.2.4,60.02199205792184,2025-03-17 14h41.26.680100 -0300,
Estimulo_5,15,15,0,2.89999999999999,-2.89999999999999,2.89999999999999,-2.89999999999999,2.2,-2.2,-2.2,2.2,0,1,1,4,,,,,,,,,,,,,,,,,0,15,15,15,,,,,,,,,,,,,,,,,,,,,,,,,,,,,29.945343800000046,,,,,,,,,,,,,,,,,29.931676000000152,29.945343800000046,29.945343800000046,29.945343800000046,30.23816480000005,30.238746800000172,30.246278600000096,30.246278600000096,30.246278600000096,30.546526500000255,30.546526500000255,30.546526500000255,30.534546200000023,,,,113546,001,2025-03-17_14h41.21.467,Estimulo_ICE,2024.2.4,60.02199205792184,2025-03-17 14h41.26.680100 -0300,
Estimulo_5,16,16,0,2.79999999999999,-2.79999999999999,2.79999999999999,-2.79999999999999,2.2,-2.2,-2.2,2.2,0,1,1,4,,,,,,,,,,,,,,,,,0,16,16,16,,,,,,,,,,,,,,,,,,,,,,,,,,,,,30.546526500000255,,,,,,,,,,,,,,,,,30.535254899999927,30.546526500000255,30.546526500000255,30.546526500000255,30.832371700000294,30.832686700000068,30.8456756999999,30.8456756999999,30.8456756999999,31.145600100000138,31.145600100000138,31.145600100000138,31.132195200000297,30.8456756999999,30.8456756999999,30.8456756999999,113546,001,2025-03-17_14h41.21.467,Estimulo_ICE,2024.2.4,60.02199205792184,2025-03-17 14h41.26.680100 -0300,
Estimulo_5,17,17,0,2.69999999999999,-2.69999999999999,2.69999999999999,-2.69999999999999,2.2,-2.2,-2.2,2.2,0,1,1,4,,,,,,,,,,,,,,,,,0,17,17,17,,,,,,,,,,,,,,,,,,,,,,,,,,,,,31.145600100000138,,,,,,,,,,,,,,,,,31.13266300000032,31.145600100000138,31.145600100000138,31.145600100000138,31.432090900000276,31.432408500000292,31.445400099999915,31.445400099999915,31.445400099999915,31.745317700000214,31.745317700000214,31.745317700000214,31.731290400000034,31.445400099999915,31.445400099999915,31.445400099999915,113546,001,2025-03-17_14h41.21.467,Estimulo_ICE,2024.2.4,60.02199205792184,2025-03-17 14h41.26.680100 -0300,
Estimulo_5,18,18,0,2.59999999999999,-2.59999999999999,2.59999999999999,-2.59999999999999,2.2,-2.2,-2.2,2.2,0,1,1,4,,,,,,,,,,,,,,,,,0,18,18,18,,,,,,,,,,,,,,,,,,,,,,,,,,,,,31.745317700000214,,,,,,,,,,,,,,,,,31.731662600000163,31.745317700000214,31.745317700000214,31.745317700000214,32.03137820000029,32.031628600000204,32.04539870000008,32.04539870000008,32.04539870000008,32.34548820000009,32.34548820000009,32.34548820000009,32.33119400000032,32.04539870000008,32.04539870000008,32.04539870000008,113546,001,2025-03-17_14h41.21.467,Estimulo_ICE,2024.2.4,60.02199205792184,2025-03-17 14h41.26.680100 -0300,
Estimulo_5,19,19,0,2.49999999999999,-2.49999999999999,2.49999999999999,-2.49999999999999,2.2,-2.2,-2.2,2.2,0,1,1,4,,,,,,,,,,,,,,,,,0,19,19,19,,,,,,,,,,,,,,,,,,,,,,,,,,,,,32.34548820000009,,,,,,,,,,,,,,,,,32.3315633000002,32.34548820000009,32.34548820000009,32.34548820000009,32.631395899999916,32.63164750000033,32.64530670000022,32.64530670000022,32.64530670000022,32.9455095000003,32.9455095000003,32.9455095000003,32.93131829999993,32.64530670000022,32.64530670000022,32.64530670000022,113546,001,2025-03-17_14h41.21.467,Estimulo_ICE,2024.2.4,60.02199205792184,2025-03-17 14h41.26.680100 -0300,
Estimulo_5,20,20,0,2.39999999999999,-2.39999999999999,2.39999999999999,-2.39999999999999,2.2,-2.2,-2.2,2.2,0,1,1,4,,,,,,,,,,,,,,,,,0,20,20,20,,,,,,,,,,,,,,,,,,,,,,,,,,,,,32.9455095000003,,,,,,,,,,,,,,,,,32.93168719999994,32.9455095000003,32.9455095000003,32.9455095000003,33.23132100000021,33.23157020000008,33.245367400000305,33.245367400000305,33.245367400000305,33.54536310000003,33.54536310000003,33.54536310000003,33.53127910000012,33.245367400000305,33.245367400000305,33.245367400000305,113546,001,2025-03-17_14h41.21.467,Estimulo_ICE,2024.2.4,60.02199205792184,2025-03-17 14h41.26.680100 -0300,
Estimulo_5,21,21,0,2.29999999999999,-2.29999999999999,2.29999999999999,-2.29999999999999,2.2,-2.2,-2.2,2.2,0,1,1,4,,,,,,,,,,,,,,,,,0,21,21,21,,,,,,,,,,,,,,,,,,,,,,,,,,,,,33.54536310000003,,,,,,,,,,,,,,,,,33.53164730000026,33.54536310000003,33.54536310000003,33.54536310000003,33.83135799999991,33.83159960000012,33.845478000000185,33.845478000000185,33.845478000000185,34.145999400000164,34.145999400000164,34.145999400000164,34.13743650000015,33.845478000000185,33.845478000000185,33.845478000000185,113546,001,2025-03-17_14h41.21.467,Estimulo_ICE,2024.2.4,60.02199205792184,2025-03-17 14h41.26.680100 -0300,
Estimulo_5,22,22,0,2.19999999999999,-2.19999999999999,2.19999999999999,-2.19999999999999,2.2,-2.2,-2.2,2.2,0,1,1,4,,,,,,,,,,,,,,,,,0,22,22,22,,,,,,,,,,,,,,,,,,,,,,,,,,,,,34.145999400000164,,,,,,,,,,,,,,,,,34.13844250000011,34.145999400000164,34.145999400000164,34.145999400000164,34.433836000000156,34.434273600000324,34.4460382000002,34.4460382000002,34.4460382000002,34.74551920000022,34.74551920000022,34.74551920000022,34.73151730000018,34.4460382000002,34.4460382000002,34.4460382000002,113546,001,2025-03-17_14h41.21.467,Estimulo_ICE,2024.2.4,60.02199205792184,2025-03-17 14h41.26.680100 -0300,
Estimulo_5,23,23,0,2.09999999999999,-2.09999999999999,2.09999999999999,-2.09999999999999,2.2,-2.2,-2.2,2.2,0,1,1,4,,,,,,,,,,,,,,,,,0,23,23,23,,,,,,,,,,,,,,,,,,,,,,,,,,,,,34.74551920000022,,,,,,,,,,,,,,,,,34.731928900000185,34.74551920000022,34.74551920000022,34.74551920000022,35.03151400000024,35.03179279999995,35.045508300000165,35.045508300000165,35.045508300000165,35.345407199999954,35.345407199999954,35.345407199999954,35.331378600000335,35.045508300000165,35.045508300000165,35.045508300000165,113546,001,2025-03-17_14h41.21.467,Estimulo_ICE,2024.2.4,60.02199205792184,2025-03-17 14h41.26.680100 -0300,
Estimulo_5,24,24,0,1.99999999999999,-1.99999999999999,1.99999999999999,-1.99999999999999,2.2,-2.2,-2.2,2.2,0,1,1,4,,,,,,,,,,,,,,,,,0,24,24,24,,,,,,,,,,,,,,,,,,,,,,,,,,,,,35.345407199999954,,,,,,,,,,,,,,,,,35.331757599999946,35.345407199999954,35.345407199999954,35.345407199999954,35.631265600000006,35.63151509999989,35.645300800000314,35.645300800000314,35.645300800000314,35.94509340000013,35.94509340000013,35.94509340000013,35.9311259000001,35.645300800000314,35.645300800000314,35.645300800000314,113546,001,2025-03-17_14h41.21.467,Estimulo_ICE,2024.2.4,60.02199205792184,2025-03-17 14h41.26.680100 -0300,
Estimulo_5,25,25,0,1.89999999999999,-1.89999999999999,1.89999999999999,-1.89999999999999,2.2,-2.2,-2.2,2.2,0,1,1,4,,,,,,,,,,,,,,,,,0,25,25,25,,,,,,,,,,,,,,,,,,,,,,,,,,,,,35.94509340000013,,,,,,,,,,,,,,,,,35.93149630000016,35.94509340000013,35.94509340000013,35.94509340000013,36.23128870000028,36.23154260000001,36.2452986000003,36.2452986000003,36.2452986000003,36.545336000000134,36.545336000000134,36.545336000000134,36.53120910000007,36.2452986000003,36.2452986000003,36.2452986000003,113546,001,2025-03-17_14h41.21.467,Estimulo_ICE,2024.2.4,60.02199205792184,2025-03-17 14h41.26.680100 -0300,
Estimulo_5,26,26,0,1.79999999999999,-1.79999999999999,1.79999999999999,-1.79999999999999,2.2,-2.2,-2.2,2.2,0,1,1,4,,,,,,,,,,,,,,,,,0,26,26,26,,,,,,,,,,,,,,,,,,,,,,,,,,,,,36.545336000000134,,,,,,,,,,,,,,,,,36.531575800000155,36.545336000000134,36.545336000000134,36.545336000000134,36.831344100000024,36.831594400000085,36.84529340000017,36.84529340000017,36.84529340000017,37.14520089999996,37.14520089999996,37.14520089999996,37.13130920000003,36.84529340000017,36.84529340000017,36.84529340000017,113546,001,2025-03-17_14h41.21.467,Estimulo_ICE,2024.2.4,60.02199205792184,2025-03-17 14h41.26.680100 -0300,
Estimulo_5,27,27,0,1.69999999999999,-1.69999999999999,1.69999999999999,-1.69999999999999,2.2,-2.2,-2.2,2.2,0,1,1,4,,,,,,,,,,,,,,,,,0,27,27,27,,,,,,,,,,,,,,,,,,,,,,,,,,,,,37.14520089999996,,,,,,,,,,,,,,,,,37.1316783000002,37.14520089999996,37.14520089999996,37.14520089999996,37.431296199999906,37.43154780000032,37.445319400000244,37.445319400000244,37.445319400000244,37.745272600000135,37.745272600000135,37.745272600000135,37.731330699999944,37.445319400000244,37.445319400000244,37.445319400000244,113546,001,2025-03-17_14h41.21.467,Estimulo_ICE,2024.2.4,60.02199205792184,2025-03-17 14h41.26.680100 -0300,
Estimulo_5,28,28,0,1.59999999999999,-1.59999999999999,1.59999999999999,-1.59999999999999,2.2,-2.2,-2.2,2.2,0,1,1,4,,,,,,,,,,,,,,,,,0,28,28,28,,,,,,,,,,,,,,,,,,,,,,,,,,,,,37.745272600000135,,,,,,,,,,,,,,,,,37.7316965,37.745272600000135,37.745272600000135,37.745272600000135,38.03129250000029,38.031541800000014,38.04521280000017,38.04521280000017,38.04521280000017,38.345355500000096,38.345355500000096,38.345355500000096,38.3311635,38.04521280000017,38.04521280000017,38.04521280000017,113546,001,2025-03-17_14h41.21.467,Estimulo_ICE,2024.2.4,60.02199205792184,2025-03-17 14h41.26.680100 -0300,
Estimulo_5,29,29,0,1.49999999999999,-1.49999999999998,1.49999999999999,-1.49999999999998,2.2,-2.2,-2.2,2.2,0,1,1,4,,,,,,,,,,,,,,,,,0,29,29,29,,,,,,,,,,,,,,,,,,,,,,,,,,,,,38.345355500000096,,,,,,,,,,,,,,,,,38.33153200000015,38.345355500000096,38.345355500000096,38.345355500000096,38.63134990000026,38.631600700000035,38.64537629999995,38.64537629999995,38.64537629999995,38.945147700000234,38.945147700000234,38.945147700000234,38.931194400000095,38.64537629999995,38.64537629999995,38.64537629999995,113546,001,2025-03-17_14h41.21.467,Estimulo_ICE,2024.2.4,60.02199205792184,2025-03-17 14h41.26.680100 -0300,
Estimulo_5,30,30,0,1.39999999999999,-1.39999999999998,1.39999999999999,-1.39999999999998,2.2,-2.2,-2.2,2.2,0,1,1,4,,,,,,,,,,,,,,,,,0,30,30,30,,,,,,,,,,,,,,,,,,,,,,,,,,,,,38.945147700000234,,,,,,,,,,,,,,,,,38.93156470000031,38.945147700000234,38.945147700000234,38.945147700000234,39.23124770000004,39.23149890000013,39.24523500000032,39.24523500000032,39.24523500000032,39.545344600000135,39.545344600000135,39.545344600000135,39.53113450000001,39.24523500000032,39.24523500000032,39.24523500000032,113546,001,2025-03-17_14h41.21.467,Estimulo_ICE,2024.2.4,60.02199205792184,2025-03-17 14h41.26.680100 -0300,
Estimulo_5,31,31,0,1.29999999999999,-1.29999999999998,1.29999999999999,-1.29999999999998,2.2,-2.2,-2.2,2.2,0,1,1,4,,,,,,,,,,,,,,,,,0,31,31,31,,,,,,,,,,,,,,,,,,,,,,,,,,,,,39.545344600000135,,,,,,,,,,,,,,,,,39.5315043999999,39.545344600000135,39.545344600000135,39.545344600000135,39.831314999999904,39.83156510000026,39.84533250000004,39.84533250000004,39.84533250000004,40.14539500000001,40.14539500000001,40.14539500000001,40.13106749999997,39.84533250000004,39.84533250000004,39.84533250000004,113546,001,2025-03-17_14h41.21.467,Estimulo_ICE,2024.2.4,60.02199205792184,2025-03-17 14h41.26.680100 -0300,
Estimulo_5,32,32,0,1.19999999999999,-1.19999999999998,1.19999999999999,-1.19999999999998,2.2,-2.2,-2.2,2.2,0,1,1,4,,,,,,,,,,,,,,,,,0,32,32,32,,,,,,,,,,,,,,,,,,,,,,,,,,,,,40.14539500000001,,,,,,,,,,,,,,,,,40.131444399999964,40.14539500000001,40.14539500000001,40.14539500000001,40.43108130000019,40.431332999999995,40.445375199999944,40.445375199999944,40.445375199999944,40.745334100000036,40.745334100000036,40.745334100000036,40.73132710000027,40.445375199999944,40.445375199999944,40.445375199999944,113546,001,2025-03-17_14h41.21.467,Estimulo_ICE,2024.2.4,60.02199205792184,2025-03-17 14h41.26.680100 -0300,
Estimulo_5,33,33,0,1.09999999999999,-1.09999999999998,1.09999999999999,-1.09999999999998,2.2,-2.2,-2.2,2.2,0,1,1,4,,,,,,,,,,,,,,,,,0,33,33,33,,,,,,,,,,,,,,,,,,,,,,,,,,,,,40.745334100000036,,,,,,,,,,,,,,,,,40.73169700000017,40.745334100000036,40.745334100000036,40.745334100000036,41.03129510000008,41.0315499000003,41.04532760000029,41.04532760000029,41.04532760000029,41.428275199999916,41.428275199999916,41.428275199999916,41.33134240000027,41.04532760000029,41.04532760000029,41.04532760000029,113546,001,2025-03-17_14h41.21.467,Estimulo_ICE,2024.2.4,60.02199205792184,2025-03-17 14h41.26.680100 -0300,
Estimulo_5,1,1,0,,,,,,,,,0,1,1,4,,,,,,,,,,,,,,,,,,,,,,,,,,,,,,,,,,,,,,,,,,,,,,,,,,,,,,,,,,,,,,,41.416379900000265,41.428275199999916,41.84752030000027,,,,,,,,,,,,,,,,,113546,001,2025-03-17_14h41.21.467,Estimulo_ICE,2024.2.4,60.02199205792184,2025-03-17 14h41.26.680100 -0300,
Estimulo_7,0,0,0,2.2,-2.2,-2.2,2.2,4.4,-4.4,4.4,-4.4,0,2,2,6,,,,,,,,,,,,,,,,,,,,,,,,,0,0,0,0,,,,,,,,,,,,,,,,,,,,,41.944872399999895,,41.84762610000007,41.84799490000023,,,,,,,,,,,,,,41.92649010000014,41.944872399999895,41.944872399999895,41.944872399999895,42.14782770000011,42.148056,42.16192470000033,42.16192470000033,42.16192470000033,42.462134700000206,42.462134700000206,42.462134700000206,42.44799160000002,,,,113546,001,2025-03-17_14h41.21.467,Estimulo_ICE,2024.2.4,60.02199205792184,2025-03-17 14h41.26.680100 -0300,
Estimulo_7,1,1,0,2.2,-2.2,-2.2,2.2,4.3,-4.3,4.3,-4.3,0,2,2,6,,,,,,,,,,,,,,,,,,,,,,,,,0,1,1,1,,,,,,,,,,,,,,,,,,,,,42.462134700000206,,,,,,,,,,,,,,,,,42.4483608999999,42.462134700000206,42.462134700000206,42.462134700000206,42.7479043000003,42.74815750000016,42.76213910000024,42.76213910000024,42.76213910000024,43.062060700000075,43.062060700000075,43.062060700000075,43.04798810000011,42.76213910000024,42.76213910000024,42.76213910000024,113546,001,2025-03-17_14h41.21.467,Estimulo_ICE,2024.2.4,60.02199205792184,2025-03-17 14h41.26.680100 -0300,
Estimulo_7,2,2,0,2.2,-2.2,-2.2,2.2,4.2,-4.2,4.2,-4.2,0,2,2,6,,,,,,,,,,,,,,,,,,,,,,,,,0,2,2,2,,,,,,,,,,,,,,,,,,,,,43.062060700000075,,,,,,,,,,,,,,,,,43.04835540000022,43.062060700000075,43.062060700000075,43.062060700000075,43.347758500000054,43.34801379999999,43.36211950000006,43.36211950000006,43.36211950000006,43.66193990000011,43.66193990000011,43.66193990000011,43.64799410000023,43.36211950000006,43.36211950000006,43.36211950000006,113546,001,2025-03-17_14h41.21.467,Estimulo_ICE,2024.2.4,60.02199205792184,2025-03-17 14h41.26.680100 -0300,
Estimulo_7,3,3,0,2.2,-2.2,-2.2,2.2,4.1,-4.1,4.1,-4.1,0,2,2,6,,,,,,,,,,,,,,,,,,,,,,,,,0,3,3,3,,,,,,,,,,,,,,,,,,,,,43.66193990000011,,,,,,,,,,,,,,,,,43.64836910000031,43.66193990000011,43.66193990000011,43.66193990000011,43.94777500000009,43.948025400000006,43.96174350000001,43.96174350000001,43.96174350000001,44.26211349999994,44.26211349999994,44.26211349999994,44.24791039999991,43.96174350000001,43.96174350000001,43.96174350000001,113546,001,2025-03-17_14h41.21.467,Estimulo_ICE,2024.2.4,60.02199205792184,2025-03-17 14h41.26.680100 -0300,
Estimulo_7,4,4,0,2.2,-2.2,-2.2,2.2,4,-4,4,-4,0,2,2,6,,,,,,,,,,,,,,,,,,,,,,,,,0,4,4,4,,,,,,,,,,,,,,,,,,,,,44.26211349999994,,,,,,,,,,,,,,,,,44.248284799999965,44.26211349999994,44.26211349999994,44.26211349999994,44.54769810000016,44.54794680000032,44.56214279999995,44.56214279999995,44.56214279999995,44.86195210000005,44.86195210000005,44.86195210000005,44.84788389999994,44.56214279999995,44.56214279999995,44.56214279999995,113546,001,2025-03-17_14h41.21.467,Estimulo_ICE,2024.2.4,60.02199205792184,2025-03-17 14h41.26.680100 -0300,
Estimulo_7,5,5,0,2.2,-2.2,-2.2,2.2,3.9,-3.9,3.9,-3.9,0,2,2,6,,,,,,,,,,,,,,,,,,,,,,,,,0,5,5,5,,,,,,,,,,,,,,,,,,,,,44.86195210000005,,,,,,,,,,,,,,,,,44.848261399999956,44.86195210000005,44.86195210000005,44.86195210000005,45.14826059999996,45.148539300000266,45.16181970000025,45.16181970000025,45.16181970000025,45.46183400000018,45.46183400000018,45.46183400000018,45.44793230000005,45.16181970000025,45.16181970000025,45.16181970000025,113546,001,2025-03-17_14h41.21.467,Estimulo_ICE,2024.2.4,60.02199205792184,2025-03-17 14h41.26.680100 -0300,
Estimulo_7,6,6,0,2.2,-2.2,-2.2,2.2,3.8,-3.8,3.8,-3.8,0,2,2,6,,,,,,,,,,,,,,,,,,,,,,,,,0,6,6,6,,,,,,,,,,,,,,,,,,,,,45.46183400000018,,,,,,,,,,,,,,,,,45.44832630000019,45.46183400000018,45.46183400000018,45.46183400000018,45.74793170000021,45.74818550000009,45.762054199999966,45.762054199999966,45.762054199999966,,,,46.0508205000001,45.762054199999966,45.762054199999966,45.762054199999966,113546,001,2025-03-17_14h41.21.467,Estimulo_ICE,2024.2.4,60.02199205792184,2025-03-17 14h41.26.680100 -0300,
Estimulo_7,7,7,0,2.2,-2.2,-2.2,2.2,3.7,-3.7,3.7,-3.7,0,2,2,6,,,,,,,,,,,,,,,,,,,,,,,,,0,7,7,7,,,,,,,,,,,,,,,,,,,,,46.06301590000021,,,,,,,,,,,,,,,,,46.051545799999985,46.06301590000021,46.06301590000021,46.06301590000021,46.35093830000005,46.351430100000016,46.36304270000028,46.36304270000028,46.36304270000028,,,,46.65195930000027,,,,113546,001,2025-03-17_14h41.21.467,Estimulo_ICE,2024.2.4,60.02199205792184,2025-03-17 14h41.26.680100 -0300,
Estimulo_7,8,8,0,2.2,-2.2,-2.2,2.2,3.6,-3.6,3.6,-3.6,0,2,2,6,,,,,,,,,,,,,,,,,,,,,,,,,0,8,8,8,,,,,,,,,,,,,,,,,,,,,46.66344040000013,,,,,,,,,,,,,,,,,46.6527673999999,46.66344040000013,46.66344040000013,46.66344040000013,46.952022899999974,46.9525778000002,46.963514399999895,46.963514399999895,46.963514399999895,,,,47.2518998999999,,,,113546,001,2025-03-17_14h41.21.467,Estimulo_ICE,2024.2.4,60.02199205792184,2025-03-17 14h41.26.680100 -0300,
Estimulo_7,9,9,0,2.2,-2.2,-2.2,2.2,3.5,-3.5,3.5,-3.5,0,2,2,6,,,,,,,,,,,,,,,,,,,,,,,,,0,9,9,9,,,,,,,,,,,,,,,,,,,,,47.26340630000004,,,,,,,,,,,,,,,,,47.2527213000003,47.26340630000004,47.26340630000004,47.26340630000004,47.55248470000015,47.55306060000021,47.563545200000135,47.563545200000135,47.563545200000135,,,,47.85246600000028,,,,113546,001,2025-03-17_14h41.21.467,Estimulo_ICE,2024.2.4,60.02199205792184,2025-03-17 14h41.26.680100 -0300,
Estimulo_7,10,10,0,2.2,-2.2,-2.2,2.2,3.39999999999999,-3.39999999999999,3.39999999999999,-3.39999999999999,0,2,2,6,,,,,,,,,,,,,,,,,,,,,,,,,0,10,10,10,,,,,,,,,,,,,,,,,,,,,47.86372870000014,,,,,,,,,,,,,,,,,47.85334439999997,47.86372870000014,47.86372870000014,47.86372870000014,48.15392780000002,48.154511900000216,48.163525700000264,48.163525700000264,48.163525700000264,,,,48.452313700000104,,,,113546,001,2025-03-17_14h41.21.467,Estimulo_ICE,2024.2.4,60.02199205792184,2025-03-17 14h41.26.680100 -0300,
Estimulo_7,11,11,0,2.2,-2.2,-2.2,2.2,3.29999999999999,-3.29999999999999,3.29999999999999,-3.29999999999999,0,2,2,6,,,,,,,,,,,,,,,,,,,,,,,,,0,11,11,11,,,,,,,,,,,,,,,,,,,,,48.463519299999916,,,,,,,,,,,,,,,,,48.45318279999992,48.463519299999916,48.463519299999916,48.463519299999916,48.75246220000008,48.75304060000008,48.76383380000016,48.76383380000016,48.76383380000016,,,,49.04773819999991,,,,113546,001,2025-03-17_14h41.21.467,Estimulo_ICE,2024.2.4,60.02199205792184,2025-03-17 14h41.26.680100 -0300,
Estimulo_7,12,12,0,2.2,-2.2,-2.2,2.2,3.19999999999999,-3.19999999999999,3.19999999999999,-3.19999999999999,0,2,2,6,,,,,,,,,,,,,,,,,,,,,,,,,0,12,12,12,,,,,,,,,,,,,,,,,,,,,49.06191119999994,,,,,,,,,,,,,,,,,49.04807370000026,49.06191119999994,49.06191119999994,49.06191119999994,49.347763000000214,49.34801180000022,49.362064700000246,49.362064700000246,49.362064700000246,49.661951500000214,49.661951500000214,49.661951500000214,49.64779159999989,49.362064700000246,49.362064700000246,49.362064700000246,113546,001,2025-03-17_14h41.21.467,Estimulo_ICE,2024.2.4,60.02199205792184,2025-03-17 14h41.26.680100 -0300,
Estimulo_7,13,13,0,2.2,-2.2,-2.2,2.2,3.09999999999999,-3.09999999999999,3.09999999999999,-3.09999999999999,0,2,2,6,,,,,,,,,,,,,,,,,,,,,,,,,0,13,13,13,,,,,,,,,,,,,,,,,,,,,49.661951500000214,,,,,,,,,,,,,,,,,49.64816470000005,49.661951500000214,49.661951500000214,49.661951500000214,49.9478637000002,49.948115099999995,49.96200930000032,49.96200930000032,49.96200930000032,50.26205590000018,50.26205590000018,50.26205590000018,50.24781780000012,49.96200930000032,49.96200930000032,49.96200930000032,113546,001,2025-03-17_14h41.21.467,Estimulo_ICE,2024.2.4,60.02199205792184,2025-03-17 14h41.26.680100 -0300,
Estimulo_7,14,14,0,2.2,-2.2,-2.2,2.2,2.99999999999999,-2.99999999999999,2.99999999999999,-2.99999999999999,0,2,2,6,,,,,,,,,,,,,,,,,,,,,,,,,0,14,14,14,,,,,,,,,,,,,,,,,,,,,50.26205590000018,,,,,,,,,,,,,,,,,50.24819400000024,50.26205590000018,50.26205590000018,50.26205590000018,50.547678200000064,50.54791100000011,50.56205230000023,50.56205230000023,50.56205230000023,50.86189719999993,50.86189719999993,50.86189719999993,50.84780090000004,50.56205230000023,50.56205230000023,50.56205230000023,113546,001,2025-03-17_14h41.21.467,Estimulo_ICE,2024.2.4,60.02199205792184,2025-03-17 14h41.26.680100 -0300,
Estimulo_7,15,15,0,2.2,-2.2,-2.2,2.2,2.89999999999999,-2.89999999999999,2.89999999999999,-2.89999999999999,0,2,2,6,,,,,,,,,,,,,,,,,,,,,,,,,0,15,15,15,,,,,,,,,,,,,,,,,,,,,50.86189719999993,,,,,,,,,,,,,,,,,50.84816090000004,50.86189719999993,50.86189719999993,50.86189719999993,51.14795510000022,51.148239699999976,51.162041800000225,51.162041800000225,51.162041800000225,51.46204110000008,51.46204110000008,51.46204110000008,51.44774910000024,51.162041800000225,51.162041800000225,51.162041800000225,113546,001,2025-03-17_14h41.21.467,Estimulo_ICE,2024.2.4,60.02199205792184,2025-03-17 14h41.26.680100 -0300,
Estimulo_7,16,16,0,2.2,-2.2,-2.2,2.2,2.79999999999999,-2.79999999999999,2.79999999999999,-2.79999999999999,0,2,2,6,,,,,,,,,,,,,,,,,,,,,,,,,0,16,16,16,,,,,,,,,,,,,,,,,,,,,51.46204110000008,,,,,,,,,,,,,,,,,51.448120500000186,51.46204110000008,51.46204110000008,51.46204110000008,51.74800039999991,51.74825129999999,51.762054400000125,51.762054400000125,51.762054400000125,52.0619400999999,52.0619400999999,52.0619400999999,52.047695100000055,51.762054400000125,51.762054400000125,51.762054400000125,113546,001,2025-03-17_14h41.21.467,Estimulo_ICE,2024.2.4,60.02199205792184,2025-03-17 14h41.26.680100 -0300,
Estimulo_7,17,17,0,2.2,-2.2,-2.2,2.2,2.69999999999999,-2.69999999999999,2.69999999999999,-2.69999999999999,0,2,2,6,,,,,,,,,,,,,,,,,,,,,,,,,0,17,17,17,,,,,,,,,,,,,,,,,,,,,52.0619400999999,,,,,,,,,,,,,,,,,52.0480692000001,52.0619400999999,52.0619400999999,52.0619400999999,52.3478697999999,52.34812080000029,52.361766400000306,52.361766400000306,52.361766400000306,52.6619639999999,52.6619639999999,52.6619639999999,52.64787819999992,52.361766400000306,52.361766400000306,52.361766400000306,113546,001,2025-03-17_14h41.21.467,Estimulo_ICE,2024.2.4,60.02199205792184,2025-03-17 14h41.26.680100 -0300,
Estimulo_7,18,18,0,2.2,-2.2,-2.2,2.2,2.59999999999999,-2.59999999999999,2.59999999999999,-2.59999999999999,0,2,2,6,,,,,,,,,,,,,,,,,,,,,,,,,0,18,18,18,,,,,,,,,,,,,,,,,,,,,52.6619639999999,,,,,,,,,,,,,,,,,52.64822770000001,52.6619639999999,52.6619639999999,52.6619639999999,52.94777150000027,52.94802280000022,52.962060900000324,52.962060900000324,52.962060900000324,53.26204550000011,53.26204550000011,53.26204550000011,53.247705000000224,52.962060900000324,52.962060900000324,52.962060900000324,113546,001,2025-03-17_14h41.21.467,Estimulo_ICE,2024.2.4,60.02199205792184,2025-03-17 14h41.26.680100 -0300,
Estimulo_7,19,19,0,2.2,-2.2,-2.2,2.2,2.49999999999999,-2.49999999999999,2.49999999999999,-2.49999999999999,0,2,2,6,,,,,,,,,,,,,,,,,,,,,,,,,0,19,19,19,,,,,,,,,,,,,,,,,,,,,53.26204550000011,,,,,,,,,,,,,,,,,53.248078200000236,53.26204550000011,53.26204550000011,53.26204550000011,53.5480034000002,53.54825470000014,53.561943000000156,53.561943000000156,53.561943000000156,53.86204790000011,53.86204790000011,53.86204790000011,53.84781950000024,53.561943000000156,53.561943000000156,53.561943000000156,113546,001,2025-03-17_14h41.21.467,Estimulo_ICE,2024.2.4,60.02199205792184,2025-03-17 14h41.26.680100 -0300,
Estimulo_7,20,20,0,2.2,-2.2,-2.2,2.2,2.39999999999999,-2.39999999999999,2.39999999999999,-2.39999999999999,0,2,2,6,,,,,,,,,,,,,,,,,,,,,,,,,0,20,20,20,,,,,,,,,,,,,,,,,,,,,53.86204790000011,,,,,,,,,,,,,,,,,53.848191399999905,53.86204790000011,53.86204790000011,53.86204790000011,54.14790290000019,54.14815410000028,54.16235790000019,54.16235790000019,54.16235790000019,54.46194229999992,54.46194229999992,54.46194229999992,54.447719600000255,54.16235790000019,54.16235790000019,54.16235790000019,113546,001,2025-03-17_14h41.21.467,Estimulo_ICE,2024.2.4,60.02199205792184,2025-03-17 14h41.26.680100 -0300,
Estimulo_7,21,21,0,2.2,-2.2,-2.2,2.2,2.29999999999999,-2.29999999999999,2.29999999999999,-2.29999999999999,0,2,2,6,,,,,,,,,,,,,,,,,,,,,,,,,0,21,21,21,,,,,,,,,,,,,,,,,,,,,54.46194229999992,,,,,,,,,,,,,,,,,54.44809460000033,54.46194229999992,54.46194229999992,54.46194229999992,54.74777180000001,54.7480215999999,54.76195800000005,54.76195800000005,54.76195800000005,55.061897800000224,55.061897800000224,55.061897800000224,55.04785010000023,54.76195800000005,54.76195800000005,54.76195800000005,113546,001,2025-03-17_14h41.21.467,Estimulo_ICE,2024.2.4,60.02199205792184,2025-03-17 14h41.26.680100 -0300,
Estimulo_7,22,22,0,2.2,-2.2,-2.2,2.2,2.19999999999999,-2.19999999999999,2.19999999999999,-2.19999999999999,0,2,2,6,,,,,,,,,,,,,,,,,,,,,,,,,0,22,22,22,,,,,,,,,,,,,,,,,,,,,55.061897800000224,,,,,,,,,,,,,,,,,55.04822310000009,55.061897800000224,55.061897800000224,55.061897800000224,55.337632100000064,55.33825789999992,55.34679720000031,55.34679720000031,55.34679720000031,55.64713729999994,55.64713729999994,55.64713729999994,55.633530300000075,,,,113546,001,2025-03-17_14h41.21.467,Estimulo_ICE,2024.2.4,60.02199205792184,2025-03-17 14h41.26.680100 -0300,
Estimulo_7,23,23,0,2.2,-2.2,-2.2,2.2,2.09999999999999,-2.09999999999999,2.09999999999999,-2.09999999999999,0,2,2,6,,,,,,,,,,,,,,,,,,,,,,,,,0,23,23,23,,,,,,,,,,,,,,,,,,,,,55.64713729999994,,,,,,,,,,,,,,,,,55.63414640000019,55.66448350000019,55.66448350000019,55.66448350000019,55.94806010000002,55.94833349999999,55.9620017000002,55.9620017000002,55.9620017000002,56.26199200000019,56.26199200000019,56.26199200000019,56.24781669999993,,,,113546,001,2025-03-17_14h41.21.467,Estimulo_ICE,2024.2.4,60.02199205792184,2025-03-17 14h41.26.680100 -0300,
Estimulo_7,24,24,0,2.2,-2.2,-2.2,2.2,1.99999999999999,-1.99999999999999,1.99999999999999,-1.99999999999999,0,2,2,6,,,,,,,,,,,,,,,,,,,,,,,,,0,24,24,24,,,,,,,,,,,,,,,,,,,,,56.26199200000019,,,,,,,,,,,,,,,,,56.248190199999954,56.26199200000019,56.26199200000019,56.26199200000019,56.54770570000028,56.54795490000015,56.562072799999896,56.562072799999896,56.562072799999896,56.861862199999905,56.861862199999905,56.861862199999905,56.847738700000264,56.562072799999896,56.562072799999896,56.562072799999896,113546,001,2025-03-17_14h41.21.467,Estimulo_ICE,2024.2.4,60.02199205792184,2025-03-17 14h41.26.680100 -0300,
Estimulo_7,25,25,0,2.2,-2.2,-2.2,2.2,1.89999999999999,-1.89999999999999,1.89999999999999,-1.89999999999999,0,2,2,6,,,,,,,,,,,,,,,,,,,,,,,,,0,25,25,25,,,,,,,,,,,,,,,,,,,,,56.861862199999905,,,,,,,,,,,,,,,,,56.8481125000003,56.861862199999905,56.861862199999905,56.861862199999905,57.147670800000014,57.1479217000001,57.16191000000026,57.16191000000026,57.16191000000026,57.461901800000305,57.461901800000305,57.461901800000305,57.44776499999989,57.16191000000026,57.16191000000026,57.16191000000026,113546,001,2025-03-17_14h41.21.467,Estimulo_ICE,2024.2.4,60.02199205792184,2025-03-17 14h41.26.680100 -0300,
Estimulo_7,26,26,0,2.2,-2.2,-2.2,2.2,1.79999999999999,-1.79999999999999,1.79999999999999,-1.79999999999999,0,2,2,6,,,,,,,,,,,,,,,,,,,,,,,,,0,26,26,26,,,,,,,,,,,,,,,,,,,,,57.461901800000305,,,,,,,,,,,,,,,,,57.44813520000025,57.461901800000305,57.461901800000305,57.461901800000305,57.747769999999946,57.74801900000011,57.76203880000003,57.76203880000003,57.76203880000003,58.06199370000013,58.06199370000013,58.06199370000013,58.04781830000002,57.76203880000003,57.76203880000003,57.76203880000003,113546,001,2025-03-17_14h41.21.467,Estimulo_ICE,2024.2.4,60.02199205792184,2025-03-17 14h41.26.680100 -0300,
Estimulo_7,27,27,0,2.2,-2.2,-2.2,2.2,1.69999999999999,-1.69999999999999,1.69999999999999,-1.69999999999999,0,2,2,6,,,,,,,,,,,,,,,,,,,,,,,,,0,27,27,27,,,,,,,,,,,,,,,,,,,,,58.06199370000013,,,,,,,,,,,,,,,,,58.04819300000008,58.06199370000013,58.06199370000013,58.06199370000013,58.34786819999999,58.34812009999996,58.361883300000045,58.361883300000045,58.361883300000045,58.662041300000055,58.662041300000055,58.662041300000055,58.64786090000007,58.361883300000045,58.361883300000045,58.361883300000045,113546,001,2025-03-17_14h41.21.467,Estimulo_ICE,2024.2.4,60.02199205792184,2025-03-17 14h41.26.680100 -0300,
Estimulo_7,28,28,0,2.2,-2.2,-2.2,2.2,1.59999999999999,-1.59999999999999,1.59999999999999,-1.59999999999999,0,2,2,6,,,,,,,,,,,,,,,,,,,,,,,,,0,28,28,28,,,,,,,,,,,,,,,,,,,,,58.662041300000055,,,,,,,,,,,,,,,,,58.648231900000155,58.662041300000055,58.662041300000055,58.662041300000055,58.94772499999999,58.94797470000003,58.9619788,58.9619788,58.9619788,59.261904400000276,59.261904400000276,59.261904400000276,59.24779660000013,58.9619788,58.9619788,58.9619788,113546,001,2025-03-17_14h41.21.467,Estimulo_ICE,2024.2.4,60.02199205792184,2025-03-17 14h41.26.680100 -0300,
Estimulo_7,29,29,0,2.2,-2.2,-2.2,2.2,1.49999999999998,-1.49999999999998,1.49999999999998,-1.49999999999998,0,2,2,6,,,,,,,,,,,,,,,,,,,,,,,,,0,29,29,29,,,,,,,,,,,,,,,,,,,,,59.261904400000276,,,,,,,,,,,,,,,,,59.24817010000015,59.261904400000276,59.261904400000276,59.261904400000276,59.54781890000004,59.54806970000027,59.56186660000003,59.56186660000003,59.56186660000003,59.861879000000044,59.861879000000044,59.861879000000044,59.847690200000216,59.56186660000003,59.56186660000003,59.56186660000003,113546,001,2025-03-17_14h41.21.467,Estimulo_ICE,2024.2.4,60.02199205792184,2025-03-17 14h41.26.680100 -0300,
Estimulo_7,30,30,0,2.2,-2.2,-2.2,2.2,1.39999999999998,-1.39999999999998,1.39999999999998,-1.39999999999998,0,2,2,6,,,,,,,,,,,,,,,,,,,,,,,,,0,30,30,30,,,,,,,,,,,,,,,,,,,,,59.861879000000044,,,,,,,,,,,,,,,,,59.84806770000023,59.861879000000044,59.861879000000044,59.861879000000044,60.1476904000001,60.147915900000044,60.16189579999991,60.16189579999991,60.16189579999991,60.46197690000008,60.46197690000008,60.46197690000008,60.44784800000025,60.16189579999991,60.16189579999991,60.16189579999991,113546,001,2025-03-17_14h41.21.467,Estimulo_ICE,2024.2.4,60.02199205792184,2025-03-17 14h41.26.680100 -0300,
Estimulo_7,31,31,0,2.2,-2.2,-2.2,2.2,1.29999999999998,-1.29999999999998,1.29999999999998,-1.29999999999998,0,2,2,6,,,,,,,,,,,,,,,,,,,,,,,,,0,31,31,31,,,,,,,,,,,,,,,,,,,,,60.46197690000008,,,,,,,,,,,,,,,,,60.44822440000007,60.46197690000008,60.46197690000008,60.46197690000008,60.7476829000002,60.747934700000314,60.761968199999956,60.761968199999956,60.761968199999956,61.06173540000009,61.06173540000009,61.06173540000009,61.047973600000205,60.761968199999956,60.761968199999956,60.761968199999956,113546,001,2025-03-17_14h41.21.467,Estimulo_ICE,2024.2.4,60.02199205792184,2025-03-17 14h41.26.680100 -0300,
Estimulo_7,32,32,0,2.2,-2.2,-2.2,2.2,1.19999999999998,-1.19999999999998,1.19999999999998,-1.19999999999998,0,2,2,6,,,,,,,,,,,,,,,,,,,,,,,,,0,32,32,32,,,,,,,,,,,,,,,,,,,,,61.06173540000009,,,,,,,,,,,,,,,,,61.04834299999993,61.06173540000009,61.06173540000009,61.06173540000009,61.34781410000005,61.34806490000028,61.36192960000017,61.36192960000017,61.36192960000017,,,,61.650851200000034,61.36192960000017,61.36192960000017,61.36192960000017,113546,001,2025-03-17_14h41.21.467,Estimulo_ICE,2024.2.4,60.02199205792184,2025-03-17 14h41.26.680100 -0300,
Estimulo_7,33,33,0,2.2,-2.2,-2.2,2.2,1.09999999999998,-1.09999999999998,1.09999999999998,-1.09999999999998,0,2,2,6,,,,,,,,,,,,,,,,,,,,,,,,,0,33,33,33,,,,,,,,,,,,,,,,,,,,,61.66291300000012,,,,,,,,,,,,,,,,,61.65157829999998,61.66291300000012,61.66291300000012,61.66291300000012,61.95088390000001,61.951386000000184,61.96291390000033,61.96291390000033,61.96291390000033,,,,62.250726300000224,,,,113546,001,2025-03-17_14h41.21.467,Estimulo_ICE,2024.2.4,60.02199205792184,2025-03-17 14h41.26.680100 -0300,
Estimulo_7,2,2,0,,,,,,,,,0,2,2,6,,,,,,,,,,,,,,,,,,,,,,,,,,,,,,,,,,,,,,,,,,,,,,,,,,,,,,,,,,,,,,,62.33003210000015,62.34472450000021,62.764498,,,,,,,,,,,,,,,,,113546,001,2025-03-17_14h41.21.467,Estimulo_ICE,2024.2.4,60.02199205792184,2025-03-17 14h41.26.680100 -0300,
estimulo_8,0,0,0,2.2,-2.2,-2.2,2.2,4.4,-4.4,4.4,-4.4,0,3,3,7,,,,,,,,,,,,,,,,,,,,,,,,,0,0,0,0,,,,,,,,,,,,,,,,,,,,,62.861459300000206,,62.764620899999954,62.76499760000024,,,,,,,,,,,,,,62.849749299999985,62.861459300000206,62.861459300000206,62.861459300000206,63.064305500000046,63.064546300000075,63.07862389999991,63.07862389999991,63.07862389999991,63.37861160000011,63.37861160000011,63.37861160000011,63.36438070000031,,,,113546,001,2025-03-17_14h41.21.467,Estimulo_ICE,2024.2.4,60.02199205792184,2025-03-17 14h41.26.680100 -0300,
estimulo_8,1,1,0,2.2,-2.2,-2.2,2.2,4.3,-4.3,4.3,-4.3,0,3,3,7,,,,,,,,,,,,,,,,,,,,,,,,,0,1,1,1,,,,,,,,,,,,,,,,,,,,,63.37861160000011,,,,,,,,,,,,,,,,,63.364753700000165,63.37861160000011,63.37861160000011,63.37861160000011,63.66447870000002,63.66473010000027,63.67861280000034,63.67861280000034,63.67861280000034,63.978612599999906,63.978612599999906,63.978612599999906,63.96451070000012,63.67861280000034,63.67861280000034,63.67861280000034,113546,001,2025-03-17_14h41.21.467,Estimulo_ICE,2024.2.4,60.02199205792184,2025-03-17 14h41.26.680100 -0300,
estimulo_8,2,2,0,2.2,-2.2,-2.2,2.2,4.2,-4.2,4.2,-4.2,0,3,3,7,,,,,,,,,,,,,,,,,,,,,,,,,0,2,2,2,,,,,,,,,,,,,,,,,,,,,63.978612599999906,,,,,,,,,,,,,,,,,63.96486619999996,63.978612599999906,63.978612599999906,63.978612599999906,64.26440430000002,64.26465400000006,64.27855500000032,64.27855500000032,64.27855500000032,64.57852170000024,64.57852170000024,64.57852170000024,64.5644755000003,64.27855500000032,64.27855500000032,64.27855500000032,113546,001,2025-03-17_14h41.21.467,Estimulo_ICE,2024.2.4,60.02199205792184,2025-03-17 14h41.26.680100 -0300,
estimulo_8,3,3,0,2.2,-2.2,-2.2,2.2,4.1,-4.1,4.1,-4.1,0,3,3,7,,,,,,,,,,,,,,,,,,,,,,,,,0,3,3,3,,,,,,,,,,,,,,,,,,,,,64.57852170000024,,,,,,,,,,,,,,,,,64.5648483,64.57852170000024,64.57852170000024,64.57852170000024,64.86442010000019,64.86467100000027,64.87850350000008,64.87850350000008,64.87850350000008,65.17860539999992,65.17860539999992,65.17860539999992,65.16447550000021,64.87850350000008,64.87850350000008,64.87850350000008,113546,001,2025-03-17_14h41.21.467,Estimulo_ICE,2024.2.4,60.02199205792184,2025-03-17 14h41.26.680100 -0300,
estimulo_8,4,4,0,2.2,-2.2,-2.2,2.2,4,-4,4,-4,0,3,3,7,,,,,,,,,,,,,,,,,,,,,,,,,0,4,4,4,,,,,,,,,,,,,,,,,,,,,65.17860539999992,,,,,,,,,,,,,,,,,65.16483259999995,65.17860539999992,65.17860539999992,65.17860539999992,65.46444509999992,65.4646958000003,65.47852180000018,65.47852180000018,65.47852180000018,65.77849900000001,65.77849900000001,65.77849900000001,65.76450879999993,65.47852180000018,65.47852180000018,65.47852180000018,113546,001,2025-03-17_14h41.21.467,Estimulo_ICE,2024.2.4,60.02199205792184,2025-03-17 14h41.26.680100 -0300,
estimulo_8,5,5,0,2.2,-2.2,-2.2,2.2,3.9,-3.9,3.9,-3.9,0,3,3,7,,,,,,,,,,,,,,,,,,,,,,,,,0,5,5,5,,,,,,,,,,,,,,,,,,,,,65.77849900000001,,,,,,,,,,,,,,,,,65.76487829999996,65.77849900000001,65.77849900000001,65.77849900000001,66.06453240000019,66.06477630000018,66.07863309999993,66.07863309999993,66.07863309999993,66.3783284000001,66.3783284000001,66.3783284000001,66.36441640000021,66.07863309999993,66.07863309999993,66.07863309999993,113546,001,2025-03-17_14h41.21.467,Estimulo_ICE,2024.2.4,60.02199205792184,2025-03-17 14h41.26.680100 -0300,
estimulo_8,6,6,0,2.2,-2.2,-2.2,2.2,3.8,-3.8,3.8,-3.8,0,3,3,7,,,,,,,,,,,,,,,,,,,,,,,,,0,6,6,6,,,,,,,,,,,,,,,,,,,,,66.3783284000001,,,,,,,,,,,,,,,,,66.36478940000006,66.3783284000001,66.3783284000001,66.3783284000001,66.66426090000004,66.66451030000007,66.67849410000008,66.67849410000008,66.67849410000008,66.97854760000018,66.97854760000018,66.97854760000018,66.96441790000017,66.67849410000008,66.67849410000008,66.67849410000008,113546,001,2025-03-17_14h41.21.467,Estimulo_ICE,2024.2.4,60.02199205792184,2025-03-17 14h41.26.680100 -0300,
estimulo_8,7,7,0,2.2,-2.2,-2.2,2.2,3.7,-3.7,3.7,-3.7,0,3,3,7,,,,,,,,,,,,,,,,,,,,,,,,,0,7,7,7,,,,,,,,,,,,,,,,,,,,,66.97854760000018,,,,,,,,,,,,,,,,,66.96478930000012,66.97854760000018,66.97854760000018,66.97854760000018,67.26442029999998,67.2646721000001,67.27862460000006,67.27862460000006,67.27862460000006,67.57845240000006,67.57845240000006,67.57845240000006,67.56442100000004,67.27862460000006,67.27862460000006,67.27862460000006,113546,001,2025-03-17_14h41.21.467,Estimulo_ICE,2024.2.4,60.02199205792184,2025-03-17 14h41.26.680100 -0300,
estimulo_8,8,8,0,2.2,-2.2,-2.2,2.2,3.6,-3.6,3.6,-3.6,0,3,3,7,,,,,,,,,,,,,,,,,,,,,,,,,0,8,8,8,,,,,,,,,,,,,,,,,,,,,67.57845240000006,,,,,,,,,,,,,,,,,67.56479440000021,67.57845240000006,67.57845240000006,67.57845240000006,67.86426950000032,67.86452129999998,67.87859720000006,67.87859720000006,67.87859720000006,68.1783602999999,68.1783602999999,68.1783602999999,68.16466489999993,67.87859720000006,67.87859720000006,67.87859720000006,113546,001,2025-03-17_14h41.21.467,Estimulo_ICE,2024.2.4,60.02199205792184,2025-03-17 14h41.26.680100 -0300,
estimulo_8,9,9,0,2.2,-2.2,-2.2,2.2,3.5,-3.5,3.5,-3.5,0,3,3,7,,,,,,,,,,,,,,,,,,,,,,,,,0,9,9,9,,,,,,,,,,,,,,,,,,,,,68.1783602999999,,,,,,,,,,,,,,,,,68.1650254000001,68.1783602999999,68.1783602999999,68.1783602999999,68.46454570000014,68.46479790000012,68.47848509999994,68.47848509999994,68.47848509999994,68.7785729000002,68.7785729000002,68.7785729000002,68.76439950000031,68.47848509999994,68.47848509999994,68.47848509999994,113546,001,2025-03-17_14h41.21.467,Estimulo_ICE,2024.2.4,60.02199205792184,2025-03-17 14h41.26.680100 -0300,
estimulo_8,10,10,0,2.2,-2.2,-2.2,2.2,3.39999999999999,-3.39999999999999,3.39999999999999,-3.39999999999999,0,3,3,7,,,,,,,,,,,,,,,,,,,,,,,,,0,10,10,10,,,,,,,,,,,,,,,,,,,,,68.7785729000002,,,,,,,,,,,,,,,,,68.7647737000002,68.7785729000002,68.7785729000002,68.7785729000002,69.0643328000001,69.06456640000033,69.0784434000002,69.0784434000002,69.0784434000002,69.37845760000027,69.37845760000027,69.37845760000027,69.36455380000007,69.0784434000002,69.0784434000002,69.0784434000002,113546,001,2025-03-17_14h41.21.467,Estimulo_ICE,2024.2.4,60.02199205792184,2025-03-17 14h41.26.680100 -0300,
estimulo_8,11,11,0,2.2,-2.2,-2.2,2.2,3.29999999999999,-3.29999999999999,3.29999999999999,-3.29999999999999,0,3,3,7,,,,,,,,,,,,,,,,,,,,,,,,,0,11,11,11,,,,,,,,,,,,,,,,,,,,,69.37845760000027,,,,,,,,,,,,,,,,,69.36492520000002,69.37845760000027,69.37845760000027,69.37845760000027,69.66735779999999,69.66784740000003,69.67956700000013,69.67956700000013,69.67956700000013,,,,69.96433590000015,,,,113546,001,2025-03-17_14h41.21.467,Estimulo_ICE,2024.2.4,60.02199205792184,2025-03-17 14h41.26.680100 -0300,
estimulo_8,12,12,0,2.2,-2.2,-2.2,2.2,3.19999999999999,-3.19999999999999,3.19999999999999,-3.19999999999999,0,3,3,7,,,,,,,,,,,,,,,,,,,,,,,,,0,12,12,12,,,,,,,,,,,,,,,,,,,,,69.9784880000002,,,,,,,,,,,,,,,,,69.96471509999992,69.9784880000002,69.9784880000002,69.9784880000002,70.26453330000004,70.26478780000025,70.27845350000007,70.27845350000007,70.27845350000007,70.57848540000032,70.57848540000032,70.57848540000032,70.56445140000005,70.27845350000007,70.27845350000007,70.27845350000007,113546,001,2025-03-17_14h41.21.467,Estimulo_ICE,2024.2.4,60.02199205792184,2025-03-17 14h41.26.680100 -0300,
estimulo_8,13,13,0,2.2,-2.2,-2.2,2.2,3.09999999999999,-3.09999999999999,3.09999999999999,-3.09999999999999,0,3,3,7,,,,,,,,,,,,,,,,,,,,,,,,,0,13,13,13,,,,,,,,,,,,,,,,,,,,,70.57848540000032,,,,,,,,,,,,,,,,,70.56482780000033,70.57848540000032,70.57848540000032,70.57848540000032,70.86447530000032,70.86471840000013,70.87858989999995,70.87858989999995,70.87858989999995,71.17849220000016,71.17849220000016,71.17849220000016,71.1644140000003,70.87858989999995,70.87858989999995,70.87858989999995,113546,001,2025-03-17_14h41.21.467,Estimulo_ICE,2024.2.4,60.02199205792184,2025-03-17 14h41.26.680100 -0300,
estimulo_8,14,14,0,2.2,-2.2,-2.2,2.2,2.99999999999999,-2.99999999999999,2.99999999999999,-2.99999999999999,0,3,3,7,,,,,,,,,,,,,,,,,,,,,,,,,0,14,14,14,,,,,,,,,,,,,,,,,,,,,71.17849220000016,,,,,,,,,,,,,,,,,71.16478910000023,71.17849220000016,71.17849220000016,71.17849220000016,71.46442470000011,71.46467520000033,71.47842840000021,71.47842840000021,71.47842840000021,71.77831110000034,71.77831110000034,71.77831110000034,71.76439440000013,71.47842840000021,71.47842840000021,71.47842840000021,113546,001,2025-03-17_14h41.21.467,Estimulo_ICE,2024.2.4,60.02199205792184,2025-03-17 14h41.26.680100 -0300,
estimulo_8,15,15,0,2.2,-2.2,-2.2,2.2,2.89999999999999,-2.89999999999999,2.89999999999999,-2.89999999999999,0,3,3,7,,,,,,,,,,,,,,,,,,,,,,,,,0,15,15,15,,,,,,,,,,,,,,,,,,,,,71.77831110000034,,,,,,,,,,,,,,,,,71.76474989999997,71.77831110000034,71.77831110000034,71.77831110000034,72.06430769999997,72.06456109999999,72.07849030000034,72.07849030000034,72.07849030000034,72.3785670000002,72.3785670000002,72.3785670000002,72.3644260000001,72.07849030000034,72.07849030000034,72.07849030000034,113546,001,2025-03-17_14h41.21.467,Estimulo_ICE,2024.2.4,60.02199205792184,2025-03-17 14h41.26.680100 -0300,
estimulo_8,16,16,0,2.2,-2.2,-2.2,2.2,2.79999999999999,-2.79999999999999,2.79999999999999,-2.79999999999999,0,3,3,7,,,,,,,,,,,,,,,,,,,,,,,,,0,16,16,16,,,,,,,,,,,,,,,,,,,,,72.3785670000002,,,,,,,,,,,,,,,,,72.3647863000001,72.3785670000002,72.3785670000002,72.3785670000002,72.6644526,72.66470690000006,72.67846230000032,72.67846230000032,72.67846230000032,72.9785737000002,72.9785737000002,72.9785737000002,72.96435070000007,72.67846230000032,72.67846230000032,72.67846230000032,113546,001,2025-03-17_14h41.21.467,Estimulo_ICE,2024.2.4,60.02199205792184,2025-03-17 14h41.26.680100 -0300,
estimulo_8,17,17,0,2.2,-2.2,-2.2,2.2,2.69999999999999,-2.69999999999999,2.69999999999999,-2.69999999999999,0,3,3,7,,,,,,,,,,,,,,,,,,,,,,,,,0,17,17,17,,,,,,,,,,,,,,,,,,,,,72.9785737000002,,,,,,,,,,,,,,,,,72.96472560000029,72.9785737000002,72.9785737000002,72.9785737000002,73.26439479999999,73.26464729999998,73.2784815,73.2784815,73.2784815,73.57847560000027,73.57847560000027,73.57847560000027,73.56437310000001,73.2784815,73.2784815,73.2784815,113546,001,2025-03-17_14h41.21.467,Estimulo_ICE,2024.2.4,60.02199205792184,2025-03-17 14h41.26.680100 -0300,
estimulo_8,18,18,0,2.2,-2.2,-2.2,2.2,2.59999999999999,-2.59999999999999,2.59999999999999,-2.59999999999999,0,3,3,7,,,,,,,,,,,,,,,,,,,,,,,,,0,18,18,18,,,,,,,,,,,,,,,,,,,,,73.57847560000027,,,,,,,,,,,,,,,,,73.56474950000029,73.57847560000027,73.57847560000027,73.57847560000027,73.86434899999995,73.864599,73.87852280000016,73.87852280000016,73.87852280000016,74.17845860000034,74.17845860000034,74.17845860000034,74.16427890000023,73.87852280000016,73.87852280000016,73.87852280000016,113546,001,2025-03-17_14h41.21.467,Estimulo_ICE,2024.2.4,60.02199205792184,2025-03-17 14h41.26.680100 -0300,
estimulo_8,19,19,0,2.2,-2.2,-2.2,2.2,2.49999999999999,-2.49999999999999,2.49999999999999,-2.49999999999999,0,3,3,7,,,,,,,,,,,,,,,,,,,,,,,,,0,19,19,19,,,,,,,,,,,,,,,,,,,,,74.17845860000034,,,,,,,,,,,,,,,,,74.16464059999998,74.17845860000034,74.17845860000034,74.17845860000034,74.46453610000026,74.4647958999999,74.47842620000029,74.47842620000029,74.47842620000029,74.77817360000017,74.77817360000017,74.77817360000017,74.76423599999998,74.47842620000029,74.47842620000029,74.47842620000029,113546,001,2025-03-17_14h41.21.467,Estimulo_ICE,2024.2.4,60.02199205792184,2025-03-17 14h41.26.680100 -0300,
estimulo_8,20,20,0,2.2,-2.2,-2.2,2.2,2.39999999999999,-2.39999999999999,2.39999999999999,-2.39999999999999,0,3,3,7,,,,,,,,,,,,,,,,,,,,,,,,,0,20,20,20,,,,,,,,,,,,,,,,,,,,,74.77817360000017,,,,,,,,,,,,,,,,,74.76461130000007,74.77817360000017,74.77817360000017,74.77817360000017,75.06421510000018,75.06447019999996,75.07845570000018,75.07845570000018,75.07845570000018,75.37853620000033,75.37853620000033,75.37853620000033,75.36438350000026,75.07845570000018,75.07845570000018,75.07845570000018,113546,001,2025-03-17_14h41.21.467,Estimulo_ICE,2024.2.4,60.02199205792184,2025-03-17 14h41.26.680100 -0300,
estimulo_8,21,21,0,2.2,-2.2,-2.2,2.2,2.29999999999999,-2.29999999999999,2.29999999999999,-2.29999999999999,0,3,3,7,,,,,,,,,,,,,,,,,,,,,,,,,0,21,21,21,,,,,,,,,,,,,,,,,,,,,75.37853620000033,,,,,,,,,,,,,,,,,75.36475800000017,75.37853620000033,75.37853620000033,75.37853620000033,75.66448630000014,75.66473750000023,75.67841790000011,75.67841790000011,75.67841790000011,75.97846620000018,75.97846620000018,75.97846620000018,75.96440220000022,75.67841790000011,75.67841790000011,75.67841790000011,113546,001,2025-03-17_14h41.21.467,Estimulo_ICE,2024.2.4,60.02199205792184,2025-03-17 14h41.26.680100 -0300,
estimulo_8,22,22,0,2.2,-2.2,-2.2,2.2,2.19999999999999,-2.19999999999999,2.19999999999999,-2.19999999999999,0,3,3,7,,,,,,,,,,,,,,,,,,,,,,,,,0,22,22,22,,,,,,,,,,,,,,,,,,,,,75.97846620000018,,,,,,,,,,,,,,,,,75.96477499999992,75.97846620000018,75.97846620000018,75.97846620000018,76.2644123,76.26466620000019,76.27842620000001,76.27842620000001,76.27842620000001,76.57845700000007,76.57845700000007,76.57845700000007,76.56424340000012,76.27842620000001,76.27842620000001,76.27842620000001,113546,001,2025-03-17_14h41.21.467,Estimulo_ICE,2024.2.4,60.02199205792184,2025-03-17 14h41.26.680100 -0300,
estimulo_8,23,23,0,2.2,-2.2,-2.2,2.2,2.09999999999999,-2.09999999999999,2.09999999999999,-2.09999999999999,0,3,3,7,,,,,,,,,,,,,,,,,,,,,,,,,0,23,23,23,,,,,,,,,,,,,,,,,,,,,76.57845700000007,,,,,,,,,,,,,,,,,76.56461829999989,76.57845700000007,76.57845700000007,76.57845700000007,76.86451840000018,76.86476010000024,76.87842330000012,76.87842330000012,76.87842330000012,77.17854140000009,77.17854140000009,77.17854140000009,77.16435010000032,76.87842330000012,76.87842330000012,76.87842330000012,113546,001,2025-03-17_14h41.21.467,Estimulo_ICE,2024.2.4,60.02199205792184,2025-03-17 14h41.26.680100 -0300,
estimulo_8,24,24,0,2.2,-2.2,-2.2,2.2,1.99999999999999,-1.99999999999999,1.99999999999999,-1.99999999999999,0,3,3,7,,,,,,,,,,,,,,,,,,,,,,,,,0,24,24,24,,,,,,,,,,,,,,,,,,,,,77.17854140000009,,,,,,,,,,,,,,,,,77.16472500000009,77.17854140000009,77.17854140000009,77.17854140000009,77.46440510000002,77.4646571000003,77.47842290000017,77.47842290000017,77.47842290000017,77.77842520000013,77.77842520000013,77.77842520000013,77.76442829999996,77.47842290000017,77.47842290000017,77.47842290000017,113546,001,2025-03-17_14h41.21.467,Estimulo_ICE,2024.2.4,60.02199205792184,2025-03-17 14h41.26.680100 -0300,
estimulo_8,25,25,0,2.2,-2.2,-2.2,2.2,1.89999999999999,-1.89999999999999,1.89999999999999,-1.89999999999999,0,3,3,7,,,,,,,,,,,,,,,,,,,,,,,,,0,25,25,25,,,,,,,,,,,,,,,,,,,,,77.77842520000013,,,,,,,,,,,,,,,,,77.76480140000012,77.77842520000013,77.77842520000013,77.77842520000013,78.06422040000007,78.06447170000001,78.07844350000005,78.07844350000005,78.07844350000005,78.3783685000003,78.3783685000003,78.3783685000003,78.36437729999989,78.07844350000005,78.07844350000005,78.07844350000005,113546,001,2025-03-17_14h41.21.467,Estimulo_ICE,2024.2.4,60.02199205792184,2025-03-17 14h41.26.680100 -0300,
estimulo_8,26,26,0,2.2,-2.2,-2.2,2.2,1.79999999999999,-1.79999999999999,1.79999999999999,-1.79999999999999,0,3,3,7,,,,,,,,,,,,,,,,,,,,,,,,,0,26,26,26,,,,,,,,,,,,,,,,,,,,,78.3783685000003,,,,,,,,,,,,,,,,,78.36473819999992,78.3783685000003,78.3783685000003,78.3783685000003,78.66429740000012,78.66454569999996,78.67843040000025,78.67843040000025,78.67843040000025,78.97840859999997,78.97840859999997,78.97840859999997,78.96444990000009,78.67843040000025,78.67843040000025,78.67843040000025,113546,001,2025-03-17_14h41.21.467,Estimulo_ICE,2024.2.4,60.02199205792184,2025-03-17 14h41.26.680100 -0300,
estimulo_8,27,27,0,2.2,-2.2,-2.2,2.2,1.69999999999999,-1.69999999999999,1.69999999999999,-1.69999999999999,0,3,3,7,,,,,,,,,,,,,,,,,,,,,,,,,0,27,27,27,,,,,,,,,,,,,,,,,,,,,78.97840859999997,,,,,,,,,,,,,,,,,78.96482250000008,78.97840859999997,78.97840859999997,78.97840859999997,79.26443840000002,79.26468939999995,79.27849540000034,79.27849540000034,79.27849540000034,79.57842019999998,79.57842019999998,79.57842019999998,79.56453770000007,79.27849540000034,79.27849540000034,79.27849540000034,113546,001,2025-03-17_14h41.21.467,Estimulo_ICE,2024.2.4,60.02199205792184,2025-03-17 14h41.26.680100 -0300,
estimulo_8,28,28,0,2.2,-2.2,-2.2,2.2,1.59999999999999,-1.59999999999999,1.59999999999999,-1.59999999999999,0,3,3,7,,,,,,,,,,,,,,,,,,,,,,,,,0,28,28,28,,,,,,,,,,,,,,,,,,,,,79.57842019999998,,,,,,,,,,,,,,,,,79.56491020000021,79.57842019999998,79.57842019999998,79.57842019999998,79.86437479999995,79.86462710000023,79.87840910000023,79.87840910000023,79.87840910000023,80.17837439999994,80.17837439999994,80.17837439999994,80.16432420000001,79.87840910000023,79.87840910000023,79.87840910000023,113546,001,2025-03-17_14h41.21.467,Estimulo_ICE,2024.2.4,60.02199205792184,2025-03-17 14h41.26.680100 -0300,
estimulo_8,29,29,0,2.2,-2.2,-2.2,2.2,1.49999999999998,-1.49999999999998,1.49999999999998,-1.49999999999998,0,3,3,7,,,,,,,,,,,,,,,,,,,,,,,,,0,29,29,29,,,,,,,,,,,,,,,,,,,,,80.17837439999994,,,,,,,,,,,,,,,,,80.16469580000012,80.17837439999994,80.17837439999994,80.17837439999994,80.46425850000014,80.46450959999993,80.47840859999997,80.47840859999997,80.47840859999997,80.77851439999995,80.77851439999995,80.77851439999995,80.76438000000007,80.47840859999997,80.47840859999997,80.47840859999997,113546,001,2025-03-17_14h41.21.467,Estimulo_ICE,2024.2.4,60.02199205792184,2025-03-17 14h41.26.680100 -0300,
estimulo_8,30,30,0,2.2,-2.2,-2.2,2.2,1.39999999999998,-1.39999999999998,1.39999999999998,-1.39999999999998,0,3,3,7,,,,,,,,,,,,,,,,,,,,,,,,,0,30,30,30,,,,,,,,,,,,,,,,,,,,,80.77851439999995,,,,,,,,,,,,,,,,,80.76475140000002,80.77851439999995,80.77851439999995,80.77851439999995,81.06419640000013,81.06444839999995,81.0782749,81.0782749,81.0782749,,,,81.36824130000014,81.0782749,81.0782749,81.0782749,113546,001,2025-03-17_14h41.21.467,Estimulo_ICE,2024.2.4,60.02199205792184,2025-03-17 14h41.26.680100 -0300,
estimulo_8,31,31,0,2.2,-2.2,-2.2,2.2,1.29999999999998,-1.29999999999998,1.29999999999998,-1.29999999999998,0,3,3,7,,,,,,,,,,,,,,,,,,,,,,,,,0,31,31,31,,,,,,,,,,,,,,,,,,,,,81.37997700000005,,,,,,,,,,,,,,,,,81.36905700000034,81.37997700000005,81.37997700000005,81.37997700000005,81.66452590000017,81.66478940000025,81.67842569999993,81.67842569999993,81.67842569999993,81.97841760000028,81.97841760000028,81.97841760000028,81.96451569999999,,,,113546,001,2025-03-17_14h41.21.467,Estimulo_ICE,2024.2.4,60.02199205792184,2025-03-17 14h41.26.680100 -0300,
estimulo_8,32,32,0,2.2,-2.2,-2.2,2.2,1.19999999999998,-1.19999999999998,1.19999999999998,-1.19999999999998,0,3,3,7,,,,,,,,,,,,,,,,,,,,,,,,,0,32,32,32,,,,,,,,,,,,,,,,,,,,,81.97841760000028,,,,,,,,,,,,,,,,,81.96490660000018,81.97841760000028,81.97841760000028,81.97841760000028,82.2641963000001,82.26444500000025,82.27842980000014,82.27842980000014,82.27842980000014,82.57849040000019,82.57849040000019,82.57849040000019,82.56425420000005,82.27842980000014,82.27842980000014,82.27842980000014,113546,001,2025-03-17_14h41.21.467,Estimulo_ICE,2024.2.4,60.02199205792184,2025-03-17 14h41.26.680100 -0300,
estimulo_8,33,33,0,2.2,-2.2,-2.2,2.2,1.09999999999998,-1.09999999999998,1.09999999999998,-1.09999999999998,0,3,3,7,,,,,,,,,,,,,,,,,,,,,,,,,0,33,33,33,,,,,,,,,,,,,,,,,,,,,82.57849040000019,,,,,,,,,,,,,,,,,82.56462749999992,82.57849040000019,82.57849040000019,82.57849040000019,82.8643833000001,82.86463300000014,82.87841870000011,82.87841870000011,82.87841870000011,83.24457740000025,83.24457740000025,83.24457740000025,83.16419480000013,82.87841870000011,82.87841870000011,82.87841870000011,113546,001,2025-03-17_14h41.21.467,Estimulo_ICE,2024.2.4,60.02199205792184,2025-03-17 14h41.26.680100 -0300,
estimulo_8,3,3,0,,,,,,,,,0,3,3,7,,,,,,,,,,,,,,,,,,,,,,,,,,,,,,,,,,,,,,,,,,,,,,,,,,,,,,,,,,,,,,,83.2283440000001,83.24457740000025,83.68062490000011,,,,,,,,,,,,,,,,,113546,001,2025-03-17_14h41.21.467,Estimulo_ICE,2024.2.4,60.02199205792184,2025-03-17 14h41.26.680100 -0300,
Estimulo_4,0,0,0,2.2,-2.2,-2.2,2.2,1.09999999999998,-1.09999999999998,1.09999999999998,-1.09999999999998,0,4,4,3,,,,,,,,,,,,,0,0,0,0,,,,,,,,,,,,,,,,,,,,,,,,,,,,,,,,,83.74453440000025,,83.68072980000034,83.6810631000003,83.72569840000006,83.74453440000025,83.74453440000025,83.74453440000025,83.9856221,83.9861963000003,83.99669970000014,83.99669970000014,83.99669970000014,84.29725929999995,,,,,,,,,,,,,,,,,,,,113546,001,2025-03-17_14h41.21.467,Estimulo_ICE,2024.2.4,60.02199205792184,2025-03-17 14h41.26.680100 -0300,
Estimulo_4,1,1,0,2.2,-2.2,-2.2,2.2,1.19999999999998,-1.19999999999998,1.19999999999998,-1.19999999999998,0,4,4,3,,,,,,,,,,,,,0,1,1,1,,,,,,,,,,,,,,,,,,,,,,,,,,,,,,,,,84.31184910000002,,,,84.29762389999996,84.31184910000002,84.31184910000002,84.31184910000002,84.59725660000004,84.5974971999999,84.6116436000002,84.6116436000002,84.6116436000002,84.89730650000001,,,,,,,,,,,,,,,,,,,,113546,001,2025-03-17_14h41.21.467,Estimulo_ICE,2024.2.4,60.02199205792184,2025-03-17 14h41.26.680100 -0300,
Estimulo_4,2,2,0,2.2,-2.2,-2.2,2.2,1.29999999999998,-1.29999999999998,1.29999999999998,-1.29999999999998,0,4,4,3,,,,,,,,,,,,,0,2,2,2,,,,,,,,,,,,,,,,,,,,,,,,,,,,,,,,,84.9117352000003,,,,84.89767269999993,84.9117352000003,84.9117352000003,84.9117352000003,85.1971552,85.19739160000017,85.21177639999996,85.21177639999996,85.21177639999996,85.49727200000007,,,,,,,,,,,,,,,,,,,,113546,001,2025-03-17_14h41.21.467,Estimulo_ICE,2024.2.4,60.02199205792184,2025-03-17 14h41.26.680100 -0300,
Estimulo_4,3,3,0,2.2,-2.2,-2.2,2.2,1.39999999999998,-1.39999999999998,1.39999999999998,-1.39999999999998,0,4,4,3,,,,,,,,,,,,,0,3,3,3,,,,,,,,,,,,,,,,,,,,,,,,,,,,,,,,,85.51180980000026,,,,85.49762899999996,85.51180980000026,85.51180980000026,85.51180980000026,85.79730880000034,85.79754150000008,85.81168860000025,85.81168860000025,85.81168860000025,86.09731680000004,,,,,,,,,,,,,,,,,,,,113546,001,2025-03-17_14h41.21.467,Estimulo_ICE,2024.2.4,60.02199205792184,2025-03-17 14h41.26.680100 -0300,
Estimulo_4,4,4,0,2.2,-2.2,-2.2,2.2,1.49999999999998,-1.49999999999998,1.49999999999998,-1.49999999999998,0,4,4,3,,,,,,,,,,,,,0,4,4,4,,,,,,,,,,,,,,,,,,,,,,,,,,,,,,,,,86.11157180000009,,,,86.09767200000033,86.11157180000009,86.11157180000009,86.11157180000009,86.39732570000024,86.39756080000006,86.41169310000032,86.41169310000032,86.41169310000032,86.6971426,,,,,,,,,,,,,,,,,,,,113546,001,2025-03-17_14h41.21.467,Estimulo_ICE,2024.2.4,60.02199205792184,2025-03-17 14h41.26.680100 -0300,
Estimulo_4,5,5,0,2.2,-2.2,-2.2,2.2,1.59999999999998,-1.59999999999998,1.59999999999998,-1.59999999999998,0,4,4,3,,,,,,,,,,,,,0,5,5,5,,,,,,,,,,,,,,,,,,,,,,,,,,,,,,,,,86.71178210000016,,,,86.69749630000024,86.71178210000016,86.71178210000016,86.71178210000016,86.9970857000003,86.99730470000031,87.01172309999993,87.01172309999993,87.01172309999993,87.29738660000021,,,,,,,,,,,,,,,,,,,,113546,001,2025-03-17_14h41.21.467,Estimulo_ICE,2024.2.4,60.02199205792184,2025-03-17 14h41.26.680100 -0300,
Estimulo_4,6,6,0,2.2,-2.2,-2.2,2.2,1.69999999999998,-1.69999999999998,1.69999999999998,-1.69999999999998,0,4,4,3,,,,,,,,,,,,,0,6,6,6,,,,,,,,,,,,,,,,,,,,,,,,,,,,,,,,,87.31164380000018,,,,87.2977406,87.31164380000018,87.31164380000018,87.31164380000018,87.59729030000017,87.59752650000019,87.61171390000027,87.61171390000027,87.61171390000027,87.8972716000003,,,,,,,,,,,,,,,,,,,,113546,001,2025-03-17_14h41.21.467,Estimulo_ICE,2024.2.4,60.02199205792184,2025-03-17 14h41.26.680100 -0300,
Estimulo_4,7,7,0,2.2,-2.2,-2.2,2.2,1.79999999999998,-1.79999999999998,1.79999999999998,-1.79999999999998,0,4,4,3,,,,,,,,,,,,,0,7,7,7,,,,,,,,,,,,,,,,,,,,,,,,,,,,,,,,,87.91167570000016,,,,87.89762719999999,87.91167570000016,87.91167570000016,87.91167570000016,88.19712890000028,88.19736300000022,88.21171140000024,88.21171140000024,88.21171140000024,88.49738410000009,,,,,,,,,,,,,,,,,,,,113546,001,2025-03-17_14h41.21.467,Estimulo_ICE,2024.2.4,60.02199205792184,2025-03-17 14h41.26.680100 -0300,
Estimulo_4,8,8,0,2.2,-2.2,-2.2,2.2,1.89999999999998,-1.89999999999998,1.89999999999998,-1.89999999999998,0,4,4,3,,,,,,,,,,,,,0,8,8,8,,,,,,,,,,,,,,,,,,,,,,,,,,,,,,,,,88.51172980000001,,,,88.49773780000032,88.51172980000001,88.51172980000001,88.51172980000001,88.79728079999995,88.79751620000025,88.81167750000031,88.81167750000031,88.81167750000031,89.0973085999999,,,,,,,,,,,,,,,,,,,,113546,001,2025-03-17_14h41.21.467,Estimulo_ICE,2024.2.4,60.02199205792184,2025-03-17 14h41.26.680100 -0300,
Estimulo_4,9,9,0,2.2,-2.2,-2.2,2.2,1.99999999999998,-1.99999999999998,1.99999999999998,-1.99999999999998,0,4,4,3,,,,,,,,,,,,,0,9,9,9,,,,,,,,,,,,,,,,,,,,,,,,,,,,,,,,,89.11170130000028,,,,89.09763500000008,89.11170130000028,89.11170130000028,89.11170130000028,89.39716510000017,89.39740100000017,89.41169059999993,89.41169059999993,89.41169059999993,89.6973324999999,,,,,,,,,,,,,,,,,,,,113546,001,2025-03-17_14h41.21.467,Estimulo_ICE,2024.2.4,60.02199205792184,2025-03-17 14h41.26.680100 -0300,
Estimulo_4,10,10,0,2.2,-2.2,-2.2,2.2,2.09999999999998,-2.09999999999998,2.09999999999998,-2.09999999999998,0,4,4,3,,,,,,,,,,,,,0,10,10,10,,,,,,,,,,,,,,,,,,,,,,,,,,,,,,,,,89.71173750000025,,,,89.6976950000003,89.71173750000025,89.71173750000025,89.71173750000025,89.9972542999999,89.99749109999993,90.01174440000023,90.01174440000023,90.01174440000023,90.2973122000003,,,,,,,,,,,,,,,,,,,,113546,001,2025-03-17_14h41.21.467,Estimulo_ICE,2024.2.4,60.02199205792184,2025-03-17 14h41.26.680100 -0300,
Estimulo_4,11,11,0,2.2,-2.2,-2.2,2.2,2.19999999999998,-2.19999999999998,2.19999999999998,-2.19999999999998,0,4,4,3,,,,,,,,,,,,,0,11,11,11,,,,,,,,,,,,,,,,,,,,,,,,,,,,,,,,,90.31166520000033,,,,90.29766500000005,90.31166520000033,90.31166520000033,90.31166520000033,90.59724640000013,90.59747940000034,90.61179799999991,90.61179799999991,90.61179799999991,90.89736380000022,,,,,,,,,,,,,,,,,,,,113546,001,2025-03-17_14h41.21.467,Estimulo_ICE,2024.2.4,60.02199205792184,2025-03-17 14h41.26.680100 -0300,
Estimulo_4,12,12,0,2.2,-2.2,-2.2,2.2,2.29999999999998,-2.29999999999998,2.29999999999998,-2.29999999999998,0,4,4,3,,,,,,,,,,,,,0,12,12,12,,,,,,,,,,,,,,,,,,,,,,,,,,,,,,,,,90.91178220000029,,,,90.89772799999992,90.91178220000029,90.91178220000029,90.91178220000029,91.19728490000034,91.19751859999997,91.21153790000017,91.21153790000017,91.21153790000017,91.49724390000029,,,,,,,,,,,,,,,,,,,,113546,001,2025-03-17_14h41.21.467,Estimulo_ICE,2024.2.4,60.02199205792184,2025-03-17 14h41.26.680100 -0300,
Estimulo_4,13,13,0,2.2,-2.2,-2.2,2.2,2.39999999999998,-2.39999999999998,2.39999999999998,-2.39999999999998,0,4,4,3,,,,,,,,,,,,,0,13,13,13,,,,,,,,,,,,,,,,,,,,,,,,,,,,,,,,,91.51178580000033,,,,91.49759840000024,91.51178580000033,91.51178580000033,91.51178580000033,91.7972949,91.79752959999996,91.81151810000028,91.81151810000028,91.81151810000028,92.09725049999997,,,,,,,,,,,,,,,,,,,,113546,001,2025-03-17_14h41.21.467,Estimulo_ICE,2024.2.4,60.02199205792184,2025-03-17 14h41.26.680100 -0300,
Estimulo_4,14,14,0,2.2,-2.2,-2.2,2.2,2.49999999999998,-2.49999999999998,2.49999999999998,-2.49999999999998,0,4,4,3,,,,,,,,,,,,,0,14,14,14,,,,,,,,,,,,,,,,,,,,,,,,,,,,,,,,,92.11168820000012,,,,92.09760630000028,92.11168820000012,92.11168820000012,92.11168820000012,92.39712559999998,92.39736070000026,92.41177430000016,92.41177430000016,92.41177430000016,92.69725040000003,,,,,,,,,,,,,,,,,,,,113546,001,2025-03-17_14h41.21.467,Estimulo_ICE,2024.2.4,60.02199205792184,2025-03-17 14h41.26.680100 -0300,
Estimulo_4,15,15,0,2.2,-2.2,-2.2,2.2,2.59999999999998,-2.59999999999998,2.59999999999998,-2.59999999999998,0,4,4,3,,,,,,,,,,,,,0,15,15,15,,,,,,,,,,,,,,,,,,,,,,,,,,,,,,,,,92.7117045,,,,92.69760649999989,92.7117045,92.7117045,92.7117045,92.99708710000004,92.9973242000001,93.0114937000003,93.0114937000003,93.0114937000003,93.29730999999992,,,,,,,,,,,,,,,,,,,,113546,001,2025-03-17_14h41.21.467,Estimulo_ICE,2024.2.4,60.02199205792184,2025-03-17 14h41.26.680100 -0300,
Estimulo_4,16,16,0,2.2,-2.2,-2.2,2.2,2.69999999999998,-2.69999999999998,2.69999999999998,-2.69999999999998,0,4,4,3,,,,,,,,,,,,,0,16,16,16,,,,,,,,,,,,,,,,,,,,,,,,,,,,,,,,,93.31156970000029,,,,93.29766390000032,93.31156970000029,93.31156970000029,93.31156970000029,93.59729700000025,93.59753230000024,93.61149290000003,93.61149290000003,93.61149290000003,93.89717950000022,,,,,,,,,,,,,,,,,,,,113546,001,2025-03-17_14h41.21.467,Estimulo_ICE,2024.2.4,60.02199205792184,2025-03-17 14h41.26.680100 -0300,
Estimulo_4,17,17,0,2.2,-2.2,-2.2,2.2,2.79999999999998,-2.79999999999998,2.79999999999998,-2.79999999999998,0,4,4,3,,,,,,,,,,,,,0,17,17,17,,,,,,,,,,,,,,,,,,,,,,,,,,,,,,,,,93.91169590000027,,,,93.8975333000003,93.91169590000027,93.91169590000027,93.91169590000027,94.19708760000003,94.19732690000001,94.21184790000007,94.21184790000007,94.21184790000007,94.49721290000025,,,,,,,,,,,,,,,,,,,,113546,001,2025-03-17_14h41.21.467,Estimulo_ICE,2024.2.4,60.02199205792184,2025-03-17 14h41.26.680100 -0300,
Estimulo_4,18,18,0,2.2,-2.2,-2.2,2.2,2.89999999999998,-2.89999999999998,2.89999999999998,-2.89999999999998,0,4,4,3,,,,,,,,,,,,,0,18,18,18,,,,,,,,,,,,,,,,,,,,,,,,,,,,,,,,,94.51159619999999,,,,94.49756690000004,94.51159619999999,94.51159619999999,94.51159619999999,94.79731470000024,94.79754720000028,94.81163340000012,94.81163340000012,94.81163340000012,95.09710799999993,,,,,,,,,,,,,,,,,,,,113546,001,2025-03-17_14h41.21.467,Estimulo_ICE,2024.2.4,60.02199205792184,2025-03-17 14h41.26.680100 -0300,
Estimulo_4,19,19,0,2.2,-2.2,-2.2,2.2,2.99999999999998,-2.99999999999998,2.99999999999998,-2.99999999999998,0,4,4,3,,,,,,,,,,,,,0,19,19,19,,,,,,,,,,,,,,,,,,,,,,,,,,,,,,,,,95.1116506000003,,,,95.09746080000014,95.1116506000003,95.1116506000003,95.1116506000003,95.39726790000032,95.39750360000016,95.41152170000032,95.41152170000032,95.41152170000032,95.69720080000025,,,,,,,,,,,,,,,,,,,,113546,001,2025-03-17_14h41.21.467,Estimulo_ICE,2024.2.4,60.02199205792184,2025-03-17 14h41.26.680100 -0300,
Estimulo_4,20,20,0,2.2,-2.2,-2.2,2.2,3.09999999999998,-3.09999999999998,3.09999999999998,-3.09999999999998,0,4,4,3,,,,,,,,,,,,,0,20,20,20,,,,,,,,,,,,,,,,,,,,,,,,,,,,,,,,,95.7115417,,,,95.69755290000012,95.7115417,95.7115417,95.7115417,95.99722930000007,95.99746480000022,96.01165390000006,96.01165390000006,96.01165390000006,96.29720380000026,,,,,,,,,,,,,,,,,,,,113546,001,2025-03-17_14h41.21.467,Estimulo_ICE,2024.2.4,60.02199205792184,2025-03-17 14h41.26.680100 -0300,
Estimulo_4,21,21,0,2.2,-2.2,-2.2,2.2,3.19999999999998,-3.19999999999998,3.19999999999998,-3.19999999999998,0,4,4,3,,,,,,,,,,,,,0,21,21,21,,,,,,,,,,,,,,,,,,,,,,,,,,,,,,,,,96.31173250000029,,,,96.29755780000005,96.31173250000029,96.31173250000029,96.31173250000029,96.59716750000007,96.59740230000034,96.61181190000025,96.61181190000025,96.61181190000025,96.89740130000018,,,,,,,,,,,,,,,,,,,,113546,001,2025-03-17_14h41.21.467,Estimulo_ICE,2024.2.4,60.02199205792184,2025-03-17 14h41.26.680100 -0300,
Estimulo_4,22,22,0,2.2,-2.2,-2.2,2.2,3.29999999999998,-3.29999999999998,3.29999999999998,-3.29999999999998,0,4,4,3,,,,,,,,,,,,,0,22,22,22,,,,,,,,,,,,,,,,,,,,,,,,,,,,,,,,,96.91163270000015,,,,96.8977660999999,96.91163270000015,96.91163270000015,96.91163270000015,97.1970925999999,97.19732730000032,97.2116989000001,97.2116989000001,97.2116989000001,97.49722400000019,,,,,,,,,,,,,,,,,,,,113546,001,2025-03-17_14h41.21.467,Estimulo_ICE,2024.2.4,60.02199205792184,2025-03-17 14h41.26.680100 -0300,
Estimulo_4,23,23,0,2.2,-2.2,-2.2,2.2,3.39999999999998,-3.39999999999998,3.39999999999998,-3.39999999999998,0,4,4,3,,,,,,,,,,,,,0,23,23,23,,,,,,,,,,,,,,,,,,,,,,,,,,,,,,,,,97.51149729999997,,,,97.4975784000003,97.51149729999997,97.51149729999997,97.51149729999997,97.79726840000012,97.7975062999999,97.81171170000016,97.81171170000016,97.81171170000016,98.0972084,,,,,,,,,,,,,,,,,,,,113546,001,2025-03-17_14h41.21.467,Estimulo_ICE,2024.2.4,60.02199205792184,2025-03-17 14h41.26.680100 -0300,
Estimulo_4,24,24,0,2.2,-2.2,-2.2,2.2,3.49999999999998,-3.49999999999998,3.49999999999998,-3.49999999999998,0,4,4,3,,,,,,,,,,,,,0,24,24,24,,,,,,,,,,,,,,,,,,,,,,,,,,,,,,,,,98.11166039999989,,,,98.09756340000013,98.11166039999989,98.11166039999989,98.11166039999989,98.39724930000011,98.39748490000011,98.41160820000005,98.41160820000005,98.41160820000005,98.69718650000004,,,,,,,,,,,,,,,,,,,,113546,001,2025-03-17_14h41.21.467,Estimulo_ICE,2024.2.4,60.02199205792184,2025-03-17 14h41.26.680100 -0300,
Estimulo_4,25,25,0,2.2,-2.2,-2.2,2.2,3.59999999999998,-3.59999999999998,3.59999999999998,-3.59999999999998,0,4,4,3,,,,,,,,,,,,,0,25,25,25,,,,,,,,,,,,,,,,,,,,,,,,,,,,,,,,,98.71165580000024,,,,98.69754469999998,98.71165580000024,98.71165580000024,98.71165580000024,98.99703670000008,98.9972729000001,99.01176110000006,99.01176110000006,99.01176110000006,99.2970865000002,,,,,,,,,,,,,,,,,,,,113546,001,2025-03-17_14h41.21.467,Estimulo_ICE,2024.2.4,60.02199205792184,2025-03-17 14h41.26.680100 -0300,
Estimulo_4,26,26,0,2.2,-2.2,-2.2,2.2,3.69999999999998,-3.69999999999998,3.69999999999998,-3.69999999999998,0,4,4,3,,,,,,,,,,,,,0,26,26,26,,,,,,,,,,,,,,,,,,,,,,,,,,,,,,,,,99.31161360000033,,,,99.29742540000007,99.31161360000033,99.31161360000033,99.31161360000033,99.59714250000025,99.59737670000004,99.61162890000014,99.61162890000014,99.61162890000014,99.89720790000001,,,,,,,,,,,,,,,,,,,,113546,001,2025-03-17_14h41.21.467,Estimulo_ICE,2024.2.4,60.02199205792184,2025-03-17 14h41.26.680100 -0300,
Estimulo_4,27,27,0,2.2,-2.2,-2.2,2.2,3.79999999999998,-3.79999999999998,3.79999999999998,-3.79999999999998,0,4,4,3,,,,,,,,,,,,,0,27,27,27,,,,,,,,,,,,,,,,,,,,,,,,,,,,,,,,,99.91170719999991,,,,99.89756130000023,99.91170719999991,99.91170719999991,99.91170719999991,100.1969352000001,100.19717020000007,100.21171660000027,100.21171660000027,100.21171660000027,100.49719860000005,,,,,,,,,,,,,,,,,,,,113546,001,2025-03-17_14h41.21.467,Estimulo_ICE,2024.2.4,60.02199205792184,2025-03-17 14h41.26.680100 -0300,
Estimulo_4,28,28,0,2.2,-2.2,-2.2,2.2,3.89999999999998,-3.89999999999998,3.89999999999998,-3.89999999999998,0,4,4,3,,,,,,,,,,,,,0,28,28,28,,,,,,,,,,,,,,,,,,,,,,,,,,,,,,,,,100.5116121000001,,,,100.49755670000013,100.5116121000001,100.5116121000001,100.5116121000001,100.79714170000034,100.79737590000013,100.81162429999995,100.81162429999995,100.81162429999995,101.09692440000026,,,,,,,,,,,,,,,,,,,,113546,001,2025-03-17_14h41.21.467,Estimulo_ICE,2024.2.4,60.02199205792184,2025-03-17 14h41.26.680100 -0300,
Estimulo_4,29,29,0,2.2,-2.2,-2.2,2.2,3.99999999999998,-3.99999999999998,3.99999999999998,-3.99999999999998,0,4,4,3,,,,,,,,,,,,,0,29,29,29,,,,,,,,,,,,,,,,,,,,,,,,,,,,,,,,,101.1116207,,,,101.09728290000021,101.1116207,101.1116207,101.1116207,101.3970589999999,101.39729440000019,101.41169519999994,101.41169519999994,101.41169519999994,101.69704170000023,,,,,,,,,,,,,,,,,,,,113546,001,2025-03-17_14h41.21.467,Estimulo_ICE,2024.2.4,60.02199205792184,2025-03-17 14h41.26.680100 -0300,
Estimulo_4,30,30,0,2.2,-2.2,-2.2,2.2,4.09999999999998,-4.09999999999998,4.09999999999998,-4.09999999999998,0,4,4,3,,,,,,,,,,,,,0,30,30,30,,,,,,,,,,,,,,,,,,,,,,,,,,,,,,,,,101.71170410000013,,,,101.69739750000008,101.71170410000013,101.71170410000013,101.71170410000013,101.99719920000007,101.9974342999999,102.01161630000024,102.01161630000024,102.01161630000024,102.29716570000028,,,,,,,,,,,,,,,,,,,,113546,001,2025-03-17_14h41.21.467,Estimulo_ICE,2024.2.4,60.02199205792184,2025-03-17 14h41.26.680100 -0300,
Estimulo_4,31,31,0,2.2,-2.2,-2.2,2.2,4.19999999999998,-4.19999999999998,4.19999999999998,-4.19999999999998,0,4,4,3,,,,,,,,,,,,,0,31,31,31,,,,,,,,,,,,,,,,,,,,,,,,,,,,,,,,,102.31161580000025,,,,102.29752030000009,102.31161580000025,102.31161580000025,102.31161580000025,102.59715340000002,102.59738760000027,102.61172889999989,102.61172889999989,102.61172889999989,102.89721439999994,,,,,,,,,,,,,,,,,,,,113546,001,2025-03-17_14h41.21.467,Estimulo_ICE,2024.2.4,60.02199205792184,2025-03-17 14h41.26.680100 -0300,
Estimulo_4,32,32,0,2.2,-2.2,-2.2,2.2,4.29999999999998,-4.29999999999998,4.29999999999998,-4.29999999999998,0,4,4,3,,,,,,,,,,,,,0,32,32,32,,,,,,,,,,,,,,,,,,,,,,,,,,,,,,,,,102.91158870000027,,,,102.89757230000032,102.91158870000027,102.91158870000027,102.91158870000027,103.19716280000011,103.19740020000017,103.21171589999994,103.21171589999994,103.21171589999994,103.49716489999992,,,,,,,,,,,,,,,,,,,,113546,001,2025-03-17_14h41.21.467,Estimulo_ICE,2024.2.4,60.02199205792184,2025-03-17 14h41.26.680100 -0300,
Estimulo_4,33,33,0,2.2,-2.2,-2.2,2.2,4.39999999999998,-4.39999999999998,4.39999999999998,-4.39999999999998,0,4,4,3,,,,,,,,,,,,,0,33,33,33,,,,,,,,,,,,,,,,,,,,,,,,,,,,,,,,,103.51162650000015,,,,103.49752149999995,103.51162650000015,103.51162650000015,103.51162650000015,103.79716189999999,103.7973976000003,103.81178970000019,103.81178970000019,103.81178970000019,104.09701910000013,,,,,,,,,,,,,,,,,,,,113546,001,2025-03-17_14h41.21.467,Estimulo_ICE,2024.2.4,60.02199205792184,2025-03-17 14h41.26.680100 -0300,
Estimulo_4,4,4,0,,,,,,,,,0,4,4,3,,,,,,,,,,,,,,,,,,,,,,,,,,,,,,,,,,,,,,,,,,,,,,,,,,,,,,,,,,,,,,,104.20072710000022,104.21112810000022,104.59715540000025,,,,,,,,,,,,,,,,,113546,001,2025-03-17_14h41.21.467,Estimulo_ICE,2024.2.4,60.02199205792184,2025-03-17 14h41.26.680100 -0300,
Estimulo_6,0,0,0,1.1,-1.1,1.1,-1.1,2.2,-2.2,-2.2,2.2,0,5,5,5,,,,,,,,,,,,,,,,,,,,,0,0,0,0,,,,,,,,,,,,,,,,,,,,,,,,,104.67778810000027,,104.59725759999992,104.59759140000006,,,,,,,,,,,,,,104.66582740000013,104.67778810000027,104.67778810000027,104.67778810000027,104.89749540000003,104.89775000000009,104.91177400000015,104.91177400000015,104.91177400000015,,,,105.1862028999999,,,,113546,001,2025-03-17_14h41.21.467,Estimulo_ICE,2024.2.4,60.02199205792184,2025-03-17 14h41.26.680100 -0300,
,1,1,0,1.2,-1.2,1.2,-1.2,2.2,-2.2,-2.2,2.2,,,,,,,,,,,,,,,,,,,,,,,,,0,1,1,1,,,,,,,,,,,,,,,,,,,,,,,,,105.19654960000025,,,,,,,,,,,,,,,,,105.18712129999994,105.19654960000025,105.19654960000025,105.19654960000025,105.48635039999999,105.48698100000001,105.49647989999994,105.49647989999994,105.49647989999994,,,,,105.49647989999994,105.49647989999994,105.49647989999994,,,,,,,,
