LoopName,thisN,thisTrialN,thisRepN,px1,px2,px3,px4,py1,py2,py3,py4,key_resp_6.keys,key_resp_7.keys,key_resp_7.rt,key_resp_7.duration,key_resp_6.rt,key_resp_6.duration,key_resp_4.keys,key_resp_5.keys,key_resp_4.rt,key_resp_4.duration,key_resp_5.rt,key_resp_5.duration,MainLoop.thisRepN,MainLoop.thisTrialN,MainLoop.thisN,MainLoop.thisIndex,loop_1.thisRepN,loop_1.thisTrialN,loop_1.thisN,loop_1.thisIndex,loop_2.thisRepN,loop_2.thisTrialN,loop_2.thisN,loop_2.thisIndex,loop_3.thisRepN,loop_3.thisTrialN,loop_3.thisN,loop_3.thisIndex,loop_4.thisRepN,loop_4.thisTrialN,loop_4.thisN,loop_4.thisIndex,loop_5.thisRepN,loop_5.thisTrialN,loop_5.thisN,loop_5.thisIndex,loop_6.thisRepN,loop_6.thisTrialN,loop_6.thisN,loop_6.thisIndex,loop_7.thisRepN,loop_7.thisTrialN,loop_7.thisN,loop_7.thisIndex,loop_8.thisRepN,loop_8.thisTrialN,loop_8.thisN,loop_8.thisIndex,loop_9.thisRepN,loop_9.thisTrialN,loop_9.thisN,loop_9.thisIndex,loop_10.thisRepN,loop_10.thisTrialN,loop_10.thisN,loop_10.thisIndex,loop_11.thisRepN,loop_11.thisTrialN,loop_11.thisN,loop_11.thisIndex,loop_12.thisRepN,loop_12.thisTrialN,loop_12.thisN,loop_12.thisIndex,thisRow.t,notes,codigo.started,codigo.stopped,trial_5.started,image_9.started,polygon_6.started,image_10.started,key_resp_6.started,trial_5.stopped,loop_12.key_resp_6.keys,trial_6.started,image_11.started,image_12.started,polygon_7.started,key_resp_7.started,trial_6.stopped,loop_12.key_resp_7.keys,loop_12.key_resp_7.rt,loop_12.key_resp_7.duration,loop_12.key_resp_6.rt,loop_12.key_resp_6.duration,_intertrial_interval_.started,polygon_5.started,_intertrial_interval_.stopped,trial_3.started,image_5.started,image_6.started,polygon_3.started,key_resp_4.started,trial_3.stopped,loop_5.key_resp_4.keys,trial_4.started,image_7.started,image_8.started,polygon_4.started,key_resp_5.started,trial_4.stopped,loop_5.key_resp_5.keys,image_7.stopped,image_8.stopped,polygon_4.stopped,key_resp_5.stopped,image_5.stopped,image_6.stopped,polygon_3.stopped,key_resp_4.stopped,loop_5.key_resp_4.rt,loop_5.key_resp_4.duration,loop_5.key_resp_5.rt,loop_5.key_resp_5.duration,participant,session,date,expName,psychopyVersion,frameRate,expStart,
Estimulo_12,0,0,0,2.2,-2.2,-2.2,2.2,1.09999999999998,-1.09999999999998,1.09999999999998,-1.09999999999998,None,None,,,,,,,,,,,0,0,0,11,,,,,,,,,,,,,,,,,,,,,,,,,,,,,,,,,,,,,,,,,,,,,0,0,0,0,0.20317620000014358,,0.010667400000102134,0.011034800000061296,0.19621660000007068,0.20317620000014358,0.20317620000014358,0.20317620000014358,0.20317620000014358,0.32190300000002026,None,0.32213660000002164,0.3367112000000816,0.3367112000000816,0.3367112000000816,0.3367112000000816,0.6218168000000333,None,,,,,,,,,,,,,,,,,,,,,,,,,,,,,,,,,,169506,001,2025-03-24_16h06.14.759,Estimulo_ICE,2024.2.4,60.05338746139349,2025-03-24 16h06.29.871999 -0300,
Estimulo_12,1,1,0,2.2,-2.2,-2.2,2.2,1.19999999999998,-1.19999999999998,1.19999999999998,-1.19999999999998,None,None,,,,,,,,,,,0,0,0,11,,,,,,,,,,,,,,,,,,,,,,,,,,,,,,,,,,,,,,,,,,,,,0,1,1,1,0.6363309000000754,,,,0.6221747000001869,0.6363309000000754,0.6363309000000754,0.6363309000000754,0.6363309000000754,0.9217262000001938,None,0.9219618000001901,0.9361736000000747,0.9361736000000747,0.9361736000000747,0.9361736000000747,1.2218870000001516,None,,,,,,,,,,,,,,,,,,,,,,,,,,,,,,,,,,169506,001,2025-03-24_16h06.14.759,Estimulo_ICE,2024.2.4,60.05338746139349,2025-03-24 16h06.29.871999 -0300,
Estimulo_12,2,2,0,2.2,-2.2,-2.2,2.2,1.29999999999998,-1.29999999999998,1.29999999999998,-1.29999999999998,None,['right'],[0.24260300000014468],[None],,,,,,,,,0,0,0,11,,,,,,,,,,,,,,,,,,,,,,,,,,,,,,,,,,,,,,,,,,,,,0,2,2,2,1.2362743000001046,,,,1.2222465000002103,1.2362743000001046,1.2362743000001046,1.2362743000001046,1.2362743000001046,1.5219030000000657,None,1.5221519000001535,1.5364245000000665,1.5364245000000665,1.5364245000000665,1.5364245000000665,1.8216392000001633,['right'],[0.24260300000014468],[None],,,,,,,,,,,,,,,,,,,,,,,,,,,,,,,,169506,001,2025-03-24_16h06.14.759,Estimulo_ICE,2024.2.4,60.05338746139349,2025-03-24 16h06.29.871999 -0300,
Estimulo_12,3,3,0,2.2,-2.2,-2.2,2.2,1.39999999999998,-1.39999999999998,1.39999999999998,-1.39999999999998,None,None,,,,,,,,,,,0,0,0,11,,,,,,,,,,,,,,,,,,,,,,,,,,,,,,,,,,,,,,,,,,,,,0,3,3,3,1.8362946000002012,,,,1.8220330000001468,1.8362946000002012,1.8362946000002012,1.8362946000002012,1.8362946000002012,2.1250128000001496,None,2.1255376000001434,2.1372549000000163,2.1372549000000163,2.1372549000000163,2.1372549000000163,2.4251060000001416,None,,,,,,,,,,,,,,,,,,,,,,,,,,,,,,,,,,169506,001,2025-03-24_16h06.14.759,Estimulo_ICE,2024.2.4,60.05338746139349,2025-03-24 16h06.29.871999 -0300,
Estimulo_12,4,4,0,2.2,-2.2,-2.2,2.2,1.49999999999998,-1.49999999999998,1.49999999999998,-1.49999999999998,None,None,,,,,,,,,,,0,0,0,11,,,,,,,,,,,,,,,,,,,,,,,,,,,,,,,,,,,,,,,,,,,,,0,4,4,4,2.4372748000000684,,,,2.4258451000000605,2.4372748000000684,2.4372748000000684,2.4372748000000684,2.4372748000000684,2.725042200000189,None,2.725551600000017,2.7372620000001007,2.7372620000001007,2.7372620000001007,2.7372620000001007,3.025045400000181,None,,,,,,,,,,,,,,,,,,,,,,,,,,,,,,,,,,169506,001,2025-03-24_16h06.14.759,Estimulo_ICE,2024.2.4,60.05338746139349,2025-03-24 16h06.29.871999 -0300,
Estimulo_12,5,5,0,2.2,-2.2,-2.2,2.2,1.59999999999998,-1.59999999999998,1.59999999999998,-1.59999999999998,None,None,,,,,,,,,,,0,0,0,11,,,,,,,,,,,,,,,,,,,,,,,,,,,,,,,,,,,,,,,,,,,,,0,5,5,5,3.0373466000000917,,,,3.0257833000000574,3.0373466000000917,3.0373466000000917,3.0373466000000917,3.0373466000000917,3.3250556000000415,None,3.3255659000001287,3.3371583000000555,3.3371583000000555,3.3371583000000555,3.3371583000000555,3.6250311000001147,None,,,,,,,,,,,,,,,,,,,,,,,,,,,,,,,,,,169506,001,2025-03-24_16h06.14.759,Estimulo_ICE,2024.2.4,60.05338746139349,2025-03-24 16h06.29.871999 -0300,
Estimulo_12,6,6,0,2.2,-2.2,-2.2,2.2,1.69999999999998,-1.69999999999998,1.69999999999998,-1.69999999999998,['right'],['right'],[0.24946300000010524],[None],[0.037844699999823206],[0.1833043000001453],,,,,,,0,0,0,11,,,,,,,,,,,,,,,,,,,,,,,,,,,,,,,,,,,,,,,,,,,,,0,6,6,6,3.637136400000145,,,,3.6257788000000346,3.637136400000145,3.637136400000145,3.637136400000145,3.637136400000145,3.9250392000001284,['right'],3.9256063000000267,3.9372481000000334,3.9372481000000334,3.9372481000000334,3.9372481000000334,4.225065400000176,['right'],[0.24946300000010524],[None],[0.037844699999823206],[0.1833043000001453],,,,,,,,,,,,,,,,,,,,,,,,,,,,,,169506,001,2025-03-24_16h06.14.759,Estimulo_ICE,2024.2.4,60.05338746139349,2025-03-24 16h06.29.871999 -0300,
Estimulo_12,7,7,0,2.2,-2.2,-2.2,2.2,1.79999999999998,-1.79999999999998,1.79999999999998,-1.79999999999998,['right'],None,,,[0.15809129999979632],[0.08851270000013756],,,,,,,0,0,0,11,,,,,,,,,,,,,,,,,,,,,,,,,,,,,,,,,,,,,,,,,,,,,0,7,7,7,4.23722500000008,,,,4.225857900000165,4.23722500000008,4.23722500000008,4.23722500000008,4.23722500000008,4.514781900000116,['right'],4.515841800000089,4.53775510000014,4.53775510000014,4.53775510000014,4.53775510000014,4.815952300000163,None,,,[0.15809129999979632],[0.08851270000013756],,,,,,,,,,,,,,,,,,,,,,,,,,,,,,169506,001,2025-03-24_16h06.14.759,Estimulo_ICE,2024.2.4,60.05338746139349,2025-03-24 16h06.29.871999 -0300,
Estimulo_12,8,8,0,2.2,-2.2,-2.2,2.2,1.89999999999998,-1.89999999999998,1.89999999999998,-1.89999999999998,['right'],None,,,[0.25740570000016305],[0.11207519999993565],,,,,,,0,0,0,11,,,,,,,,,,,,,,,,,,,,,,,,,,,,,,,,,,,,,,,,,,,,,0,8,8,8,4.836342700000159,,,,4.817388200000096,4.836342700000159,4.836342700000159,4.836342700000159,4.836342700000159,5.125373600000103,['right'],5.126037400000087,5.137975800000049,5.137975800000049,5.137975800000049,5.137975800000049,5.424900500000149,None,,,[0.25740570000016305],[0.11207519999993565],,,,,,,,,,,,,,,,,,,,,,,,,,,,,,169506,001,2025-03-24_16h06.14.759,Estimulo_ICE,2024.2.4,60.05338746139349,2025-03-24 16h06.29.871999 -0300,
Estimulo_12,9,9,0,2.2,-2.2,-2.2,2.2,1.99999999999998,-1.99999999999998,1.99999999999998,-1.99999999999998,None,['right'],[0.1516870000000381],[None],,,,,,,,,0,0,0,11,,,,,,,,,,,,,,,,,,,,,,,,,,,,,,,,,,,,,,,,,,,,,0,9,9,9,5.439429400000108,,,,5.425728000000163,5.439429400000108,5.439429400000108,5.439429400000108,5.439429400000108,5.722756200000049,None,5.723090900000216,5.73971900000015,5.73971900000015,5.73971900000015,5.73971900000015,6.014639400000078,['right'],[0.1516870000000381],[None],,,,,,,,,,,,,,,,,,,,,,,,,,,,,,,,169506,001,2025-03-24_16h06.14.759,Estimulo_ICE,2024.2.4,60.05338746139349,2025-03-24 16h06.29.871999 -0300,
Estimulo_12,10,10,0,2.2,-2.2,-2.2,2.2,2.09999999999998,-2.09999999999998,2.09999999999998,-2.09999999999998,['right'],None,,,[0.26068560000021535],[None],,,,,,,0,0,0,11,,,,,,,,,,,,,,,,,,,,,,,,,,,,,,,,,,,,,,,,,,,,,0,10,10,10,6.038397600000053,,,,6.016145600000073,6.038397600000053,6.038397600000053,6.038397600000053,6.038397600000053,6.326459300000124,['right'],6.32713230000013,6.33774510000012,6.33774510000012,6.33774510000012,6.33774510000012,6.626342400000112,None,,,[0.26068560000021535],[None],,,,,,,,,,,,,,,,,,,,,,,,,,,,,,169506,001,2025-03-24_16h06.14.759,Estimulo_ICE,2024.2.4,60.05338746139349,2025-03-24 16h06.29.871999 -0300,
Estimulo_12,11,11,0,2.2,-2.2,-2.2,2.2,2.19999999999998,-2.19999999999998,2.19999999999998,-2.19999999999998,None,None,,,,,,,,,,,0,0,0,11,,,,,,,,,,,,,,,,,,,,,,,,,,,,,,,,,,,,,,,,,,,,,0,11,11,11,6.637671600000203,,,,6.6272246000000905,6.637671600000203,6.637671600000203,6.637671600000203,6.637671600000203,6.921853600000077,None,6.922101200000043,6.936141000000134,6.936141000000134,6.936141000000134,6.936141000000134,7.222110600000178,None,,,,,,,,,,,,,,,,,,,,,,,,,,,,,,,,,,169506,001,2025-03-24_16h06.14.759,Estimulo_ICE,2024.2.4,60.05338746139349,2025-03-24 16h06.29.871999 -0300,
Estimulo_12,12,12,0,2.2,-2.2,-2.2,2.2,2.29999999999998,-2.29999999999998,2.29999999999998,-2.29999999999998,['right'],['right'],[0.1313350000000355],[None],[0.2831097000000682],[0.2077156999998806],,,,,,,0,0,0,11,,,,,,,,,,,,,,,,,,,,,,,,,,,,,,,,,,,,,,,,,,,,,0,12,12,12,7.236258900000166,,,,7.22246640000003,7.236258900000166,7.236258900000166,7.236258900000166,7.236258900000166,7.521632500000123,['right'],7.52190470000005,7.536269400000037,7.536269400000037,7.536269400000037,7.536269400000037,7.821655200000123,['right'],[0.1313350000000355],[None],[0.2831097000000682],[0.2077156999998806],,,,,,,,,,,,,,,,,,,,,,,,,,,,,,169506,001,2025-03-24_16h06.14.759,Estimulo_ICE,2024.2.4,60.05338746139349,2025-03-24 16h06.29.871999 -0300,
Estimulo_12,13,13,0,2.2,-2.2,-2.2,2.2,2.39999999999998,-2.39999999999998,2.39999999999998,-2.39999999999998,None,['right'],[-0.007217999999966196],[0.22441059999982826],,,,,,,,,0,0,0,11,,,,,,,,,,,,,,,,,,,,,,,,,,,,,,,,,,,,,,,,,,,,,0,13,13,13,7.836316100000204,,,,7.82203410000011,7.836316100000204,7.836316100000204,7.836316100000204,7.836316100000204,8.12655800000016,None,8.127183000000059,8.137490500000013,8.137490500000013,8.137490500000013,8.137490500000013,8.42172770000002,['right'],[-0.007217999999966196],[0.22441059999982826],,,,,,,,,,,,,,,,,,,,,,,,,,,,,,,,169506,001,2025-03-24_16h06.14.759,Estimulo_ICE,2024.2.4,60.05338746139349,2025-03-24 16h06.29.871999 -0300,
Estimulo_12,14,14,0,2.2,-2.2,-2.2,2.2,2.49999999999998,-2.49999999999998,2.49999999999998,-2.49999999999998,None,['right'],[0.0498806999999033],[None],,,,,,,,,0,0,0,11,,,,,,,,,,,,,,,,,,,,,,,,,,,,,,,,,,,,,,,,,,,,,0,14,14,14,8.436236100000087,,,,8.422111700000187,8.436236100000087,8.436236100000087,8.436236100000087,8.436236100000087,8.723332500000197,None,8.723709800000051,8.73673040000017,8.73673040000017,8.73673040000017,8.73673040000017,9.021848300000102,['right'],[0.0498806999999033],[None],,,,,,,,,,,,,,,,,,,,,,,,,,,,,,,,169506,001,2025-03-24_16h06.14.759,Estimulo_ICE,2024.2.4,60.05338746139349,2025-03-24 16h06.29.871999 -0300,
Estimulo_12,15,15,0,2.2,-2.2,-2.2,2.2,2.59999999999998,-2.59999999999998,2.59999999999998,-2.59999999999998,None,None,,,,,,,,,,,0,0,0,11,,,,,,,,,,,,,,,,,,,,,,,,,,,,,,,,,,,,,,,,,,,,,0,15,15,15,9.03640930000006,,,,9.022230200000195,9.03640930000006,9.03640930000006,9.03640930000006,9.03640930000006,9.32172370000012,None,9.321972500000129,9.336263500000086,9.336263500000086,9.336263500000086,9.336263500000086,9.621827100000019,None,,,,,,,,,,,,,,,,,,,,,,,,,,,,,,,,,,169506,001,2025-03-24_16h06.14.759,Estimulo_ICE,2024.2.4,60.05338746139349,2025-03-24 16h06.29.871999 -0300,
Estimulo_12,16,16,0,2.2,-2.2,-2.2,2.2,2.69999999999998,-2.69999999999998,2.69999999999998,-2.69999999999998,['right'],None,,,[0.20750280000015664],[None],,,,,,,0,0,0,11,,,,,,,,,,,,,,,,,,,,,,,,,,,,,,,,,,,,,,,,,,,,,0,16,16,16,9.636077700000214,,,,9.622181000000182,9.636077700000214,9.636077700000214,9.636077700000214,9.636077700000214,9.92172050000022,['right'],9.922000600000047,9.936075800000026,9.936075800000026,9.936075800000026,9.936075800000026,10.221698900000092,None,,,[0.20750280000015664],[None],,,,,,,,,,,,,,,,,,,,,,,,,,,,,,169506,001,2025-03-24_16h06.14.759,Estimulo_ICE,2024.2.4,60.05338746139349,2025-03-24 16h06.29.871999 -0300,
Estimulo_12,17,17,0,2.2,-2.2,-2.2,2.2,2.79999999999998,-2.79999999999998,2.79999999999998,-2.79999999999998,None,None,,,,,,,,,,,0,0,0,11,,,,,,,,,,,,,,,,,,,,,,,,,,,,,,,,,,,,,,,,,,,,,0,17,17,17,10.236258100000214,,,,10.222055800000135,10.236258100000214,10.236258100000214,10.236258100000214,10.236258100000214,10.52169310000022,None,10.521942200000012,10.536088400000153,10.536088400000153,10.536088400000153,10.536088400000153,10.822767200000044,None,,,,,,,,,,,,,,,,,,,,,,,,,,,,,,,,,,169506,001,2025-03-24_16h06.14.759,Estimulo_ICE,2024.2.4,60.05338746139349,2025-03-24 16h06.29.871999 -0300,
Estimulo_12,18,18,0,2.2,-2.2,-2.2,2.2,2.89999999999998,-2.89999999999998,2.89999999999998,-2.89999999999998,None,None,,,,,,,,,,,0,0,0,11,,,,,,,,,,,,,,,,,,,,,,,,,,,,,,,,,,,,,,,,,,,,,0,18,18,18,10.836270700000114,,,,10.823257000000012,10.836270700000114,10.836270700000114,10.836270700000114,10.836270700000114,11.122832000000017,None,11.123170100000152,11.136485400000083,11.136485400000083,11.136485400000083,11.136485400000083,11.421767600000067,None,,,,,,,,,,,,,,,,,,,,,,,,,,,,,,,,,,169506,001,2025-03-24_16h06.14.759,Estimulo_ICE,2024.2.4,60.05338746139349,2025-03-24 16h06.29.871999 -0300,
Estimulo_12,19,19,0,2.2,-2.2,-2.2,2.2,2.99999999999998,-2.99999999999998,2.99999999999998,-2.99999999999998,None,None,,,,,,,,,,,0,0,0,11,,,,,,,,,,,,,,,,,,,,,,,,,,,,,,,,,,,,,,,,,,,,,0,19,19,19,11.436234200000172,,,,11.422122000000172,11.436234200000172,11.436234200000172,11.436234200000172,11.436234200000172,11.721781700000065,None,11.722031100000095,11.73619860000008,11.73619860000008,11.73619860000008,11.73619860000008,12.021909300000061,None,,,,,,,,,,,,,,,,,,,,,,,,,,,,,,,,,,169506,001,2025-03-24_16h06.14.759,Estimulo_ICE,2024.2.4,60.05338746139349,2025-03-24 16h06.29.871999 -0300,
Estimulo_12,20,20,0,2.2,-2.2,-2.2,2.2,3.09999999999998,-3.09999999999998,3.09999999999998,-3.09999999999998,None,None,,,,,,,,,,,0,0,0,11,,,,,,,,,,,,,,,,,,,,,,,,,,,,,,,,,,,,,,,,,,,,,0,20,20,20,12.036247500000172,,,,12.022265900000093,12.036247500000172,12.036247500000172,12.036247500000172,12.036247500000172,12.312163100000134,None,12.312941000000137,12.321795700000166,12.321795700000166,12.321795700000166,12.321795700000166,12.623125600000094,None,,,,,,,,,,,,,,,,,,,,,,,,,,,,,,,,,,169506,001,2025-03-24_16h06.14.759,Estimulo_ICE,2024.2.4,60.05338746139349,2025-03-24 16h06.29.871999 -0300,
Estimulo_12,21,21,0,2.2,-2.2,-2.2,2.2,3.19999999999998,-3.19999999999998,3.19999999999998,-3.19999999999998,None,None,,,,,,,,,,,0,0,0,11,,,,,,,,,,,,,,,,,,,,,,,,,,,,,,,,,,,,,,,,,,,,,0,21,21,21,12.636690300000055,,,,12.623641700000007,12.636690300000055,12.636690300000055,12.636690300000055,12.636690300000055,12.921640700000125,None,12.921889100000044,12.93620830000009,12.93620830000009,12.93620830000009,12.93620830000009,13.226548600000115,None,,,,,,,,,,,,,,,,,,,,,,,,,,,,,,,,,,169506,001,2025-03-24_16h06.14.759,Estimulo_ICE,2024.2.4,60.05338746139349,2025-03-24 16h06.29.871999 -0300,
Estimulo_12,22,22,0,2.2,-2.2,-2.2,2.2,3.29999999999998,-3.29999999999998,3.29999999999998,-3.29999999999998,None,None,,,,,,,,,,,0,0,0,11,,,,,,,,,,,,,,,,,,,,,,,,,,,,,,,,,,,,,,,,,,,,,0,22,22,22,13.236725800000158,,,,13.227420200000097,13.236725800000158,13.236725800000158,13.236725800000158,13.236725800000158,13.523459900000034,None,13.523856200000182,13.5367447000001,13.5367447000001,13.5367447000001,13.5367447000001,13.823602500000106,None,,,,,,,,,,,,,,,,,,,,,,,,,,,,,,,,,,169506,001,2025-03-24_16h06.14.759,Estimulo_ICE,2024.2.4,60.05338746139349,2025-03-24 16h06.29.871999 -0300,
Estimulo_12,23,23,0,2.2,-2.2,-2.2,2.2,3.39999999999998,-3.39999999999998,3.39999999999998,-3.39999999999998,None,None,,,,,,,,,,,0,0,0,11,,,,,,,,,,,,,,,,,,,,,,,,,,,,,,,,,,,,,,,,,,,,,0,23,23,23,13.836232400000199,,,,13.824173100000053,13.836232400000199,13.836232400000199,13.836232400000199,13.836232400000199,14.121807500000159,None,14.122063800000205,14.136212800000067,14.136212800000067,14.136212800000067,14.136212800000067,14.421770800000104,None,,,,,,,,,,,,,,,,,,,,,,,,,,,,,,,,,,169506,001,2025-03-24_16h06.14.759,Estimulo_ICE,2024.2.4,60.05338746139349,2025-03-24 16h06.29.871999 -0300,
Estimulo_12,24,24,0,2.2,-2.2,-2.2,2.2,3.49999999999998,-3.49999999999998,3.49999999999998,-3.49999999999998,None,None,,,,,,,,,,,0,0,0,11,,,,,,,,,,,,,,,,,,,,,,,,,,,,,,,,,,,,,,,,,,,,,0,24,24,24,14.43630260000009,,,,14.42213340000012,14.43630260000009,14.43630260000009,14.43630260000009,14.43630260000009,14.721650600000203,None,14.721907300000112,14.73633430000018,14.73633430000018,14.73633430000018,14.73633430000018,15.021828500000083,None,,,,,,,,,,,,,,,,,,,,,,,,,,,,,,,,,,169506,001,2025-03-24_16h06.14.759,Estimulo_ICE,2024.2.4,60.05338746139349,2025-03-24 16h06.29.871999 -0300,
Estimulo_12,25,25,0,2.2,-2.2,-2.2,2.2,3.59999999999998,-3.59999999999998,3.59999999999998,-3.59999999999998,None,None,,,,,,,,,,,0,0,0,11,,,,,,,,,,,,,,,,,,,,,,,,,,,,,,,,,,,,,,,,,,,,,0,25,25,25,15.036226500000112,,,,15.022189300000036,15.036226500000112,15.036226500000112,15.036226500000112,15.036226500000112,15.321704500000124,None,15.321958800000175,15.336225100000092,15.336225100000092,15.336225100000092,15.336225100000092,15.621938,None,,,,,,,,,,,,,,,,,,,,,,,,,,,,,,,,,,169506,001,2025-03-24_16h06.14.759,Estimulo_ICE,2024.2.4,60.05338746139349,2025-03-24 16h06.29.871999 -0300,
Estimulo_12,26,26,0,2.2,-2.2,-2.2,2.2,3.69999999999998,-3.69999999999998,3.69999999999998,-3.69999999999998,None,None,,,,,,,,,,,0,0,0,11,,,,,,,,,,,,,,,,,,,,,,,,,,,,,,,,,,,,,,,,,,,,,0,26,26,26,15.636278700000048,,,,15.622332600000163,15.636278700000048,15.636278700000048,15.636278700000048,15.636278700000048,15.922151300000223,None,15.922426600000108,15.93627840000022,15.93627840000022,15.93627840000022,15.93627840000022,16.223274300000185,None,,,,,,,,,,,,,,,,,,,,,,,,,,,,,,,,,,169506,001,2025-03-24_16h06.14.759,Estimulo_ICE,2024.2.4,60.05338746139349,2025-03-24 16h06.29.871999 -0300,
Estimulo_12,27,27,0,2.2,-2.2,-2.2,2.2,3.79999999999998,-3.79999999999998,3.79999999999998,-3.79999999999998,None,None,,,,,,,,,,,0,0,0,11,,,,,,,,,,,,,,,,,,,,,,,,,,,,,,,,,,,,,,,,,,,,,0,27,27,27,16.236608500000102,,,,16.22387700000013,16.236608500000102,16.236608500000102,16.236608500000102,16.236608500000102,16.52180290000001,None,16.522050900000067,16.53632810000022,16.53632810000022,16.53632810000022,16.53632810000022,16.821724800000084,None,,,,,,,,,,,,,,,,,,,,,,,,,,,,,,,,,,169506,001,2025-03-24_16h06.14.759,Estimulo_ICE,2024.2.4,60.05338746139349,2025-03-24 16h06.29.871999 -0300,
Estimulo_12,28,28,0,2.2,-2.2,-2.2,2.2,3.89999999999998,-3.89999999999998,3.89999999999998,-3.89999999999998,None,None,,,,,,,,,,,0,0,0,11,,,,,,,,,,,,,,,,,,,,,,,,,,,,,,,,,,,,,,,,,,,,,0,28,28,28,16.836039000000028,,,,16.8220838000002,16.836039000000028,16.836039000000028,16.836039000000028,16.836039000000028,17.121743600000173,None,17.12199270000019,17.136224700000184,17.136224700000184,17.136224700000184,17.136224700000184,17.421758700000055,None,,,,,,,,,,,,,,,,,,,,,,,,,,,,,,,,,,169506,001,2025-03-24_16h06.14.759,Estimulo_ICE,2024.2.4,60.05338746139349,2025-03-24 16h06.29.871999 -0300,
Estimulo_12,29,29,0,2.2,-2.2,-2.2,2.2,3.99999999999998,-3.99999999999998,3.99999999999998,-3.99999999999998,None,None,,,,,,,,,,,0,0,0,11,,,,,,,,,,,,,,,,,,,,,,,,,,,,,,,,,,,,,,,,,,,,,0,29,29,29,17.436080700000048,,,,17.422115100000156,17.436080700000048,17.436080700000048,17.436080700000048,17.436080700000048,17.72149870000021,None,17.721736700000065,17.736206500000208,17.736206500000208,17.736206500000208,17.736206500000208,18.02173720000019,None,,,,,,,,,,,,,,,,,,,,,,,,,,,,,,,,,,169506,001,2025-03-24_16h06.14.759,Estimulo_ICE,2024.2.4,60.05338746139349,2025-03-24 16h06.29.871999 -0300,
Estimulo_12,30,30,0,2.2,-2.2,-2.2,2.2,4.09999999999998,-4.09999999999998,4.09999999999998,-4.09999999999998,None,None,,,,,,,,,,,0,0,0,11,,,,,,,,,,,,,,,,,,,,,,,,,,,,,,,,,,,,,,,,,,,,,0,30,30,30,18.036259400000063,,,,18.022099000000026,18.036259400000063,18.036259400000063,18.036259400000063,18.036259400000063,18.323900000000094,None,18.324325500000214,18.33672730000012,18.33672730000012,18.33672730000012,18.33672730000012,18.624092100000098,None,,,,,,,,,,,,,,,,,,,,,,,,,,,,,,,,,,169506,001,2025-03-24_16h06.14.759,Estimulo_ICE,2024.2.4,60.05338746139349,2025-03-24 16h06.29.871999 -0300,
Estimulo_12,31,31,0,2.2,-2.2,-2.2,2.2,4.19999999999998,-4.19999999999998,4.19999999999998,-4.19999999999998,None,None,,,,,,,,,,,0,0,0,11,,,,,,,,,,,,,,,,,,,,,,,,,,,,,,,,,,,,,,,,,,,,,0,31,31,31,18.636691600000177,,,,18.624723700000004,18.636691600000177,18.636691600000177,18.636691600000177,18.636691600000177,18.92171230000008,None,18.922000500000195,18.93644620000009,18.93644620000009,18.93644620000009,18.93644620000009,19.221667900000057,None,,,,,,,,,,,,,,,,,,,,,,,,,,,,,,,,,,169506,001,2025-03-24_16h06.14.759,Estimulo_ICE,2024.2.4,60.05338746139349,2025-03-24 16h06.29.871999 -0300,
Estimulo_12,32,32,0,2.2,-2.2,-2.2,2.2,4.29999999999998,-4.29999999999998,4.29999999999998,-4.29999999999998,None,None,,,,,,,,,,,0,0,0,11,,,,,,,,,,,,,,,,,,,,,,,,,,,,,,,,,,,,,,,,,,,,,0,32,32,32,19.236099200000126,,,,19.22203280000008,19.236099200000126,19.236099200000126,19.236099200000126,19.236099200000126,19.512148700000125,None,19.51292750000016,19.52172470000005,19.52172470000005,19.52172470000005,19.52172470000005,19.823909100000037,None,,,,,,,,,,,,,,,,,,,,,,,,,,,,,,,,,,169506,001,2025-03-24_16h06.14.759,Estimulo_ICE,2024.2.4,60.05338746139349,2025-03-24 16h06.29.871999 -0300,
Estimulo_12,33,33,0,2.2,-2.2,-2.2,2.2,4.39999999999998,-4.39999999999998,4.39999999999998,-4.39999999999998,None,None,,,,,,,,,,,0,0,0,11,,,,,,,,,,,,,,,,,,,,,,,,,,,,,,,,,,,,,,,,,,,,,0,33,33,33,19.8366853,,,,19.824518500000067,19.8366853,19.8366853,19.8366853,19.8366853,20.121810200000027,None,20.122061900000062,20.136178500000142,20.136178500000142,20.136178500000142,20.136178500000142,20.421535500000118,None,,,,,,,,,,,,,,,,,,,,,,,,,,,,,,,,,,169506,001,2025-03-24_16h06.14.759,Estimulo_ICE,2024.2.4,60.05338746139349,2025-03-24 16h06.29.871999 -0300,
Estimulo_12,0,0,0,,,,,,,,,,,,,,,,,,,,,0,0,0,11,,,,,,,,,,,,,,,,,,,,,,,,,,,,,,,,,,,,,,,,,,,,,,,,,,,,,,,,,,,,,,,,,,,,,,,20.426730200000065,20.436321500000076,21.921658200000138,,,,,,,,,,,,,,,,,,,,,,,,,,,169506,001,2025-03-24_16h06.14.759,Estimulo_ICE,2024.2.4,60.05338746139349,2025-03-24 16h06.29.871999 -0300,
Estimulo_5,0,0,0,4.4,-4.4,4.4,-4.4,2.2,-2.2,-2.2,2.2,,,,,,,None,None,,,,,0,1,1,4,,,,,,,,,,,,,,,,,0,0,0,0,,,,,,,,,,,,,,,,,,,,,,,,,,,,,22.002374900000177,,21.92176560000007,21.922119600000087,,,,,,,,,,,,,,,,,,,,,,21.98310450000008,22.002374900000177,22.002374900000177,22.002374900000177,22.002374900000177,22.22243400000002,None,22.22268740000004,22.23619870000016,22.23619870000016,22.23619870000016,22.23619870000016,22.525235900000098,None,,,,,,,,,,,,,169506,001,2025-03-24_16h06.14.759,Estimulo_ICE,2024.2.4,60.05338746139349,2025-03-24 16h06.29.871999 -0300,
Estimulo_5,1,1,0,4.3,-4.3,4.3,-4.3,2.2,-2.2,-2.2,2.2,,,,,,,None,None,,,,,0,1,1,4,,,,,,,,,,,,,,,,,0,1,1,1,,,,,,,,,,,,,,,,,,,,,,,,,,,,,22.537344100000155,,,,,,,,,,,,,,,,,,,,,,,,,22.526033100000177,22.537344100000155,22.537344100000155,22.537344100000155,22.537344100000155,22.822182900000143,None,22.82245570000009,22.836014800000157,22.836014800000157,22.836014800000157,22.836014800000157,23.121879700000136,None,23.136106100000006,23.136106100000006,23.136106100000006,23.136106100000006,,,,,,,,,169506,001,2025-03-24_16h06.14.759,Estimulo_ICE,2024.2.4,60.05338746139349,2025-03-24 16h06.29.871999 -0300,
Estimulo_5,2,2,0,4.2,-4.2,4.2,-4.2,2.2,-2.2,-2.2,2.2,,,,,,,None,None,,,,,0,1,1,4,,,,,,,,,,,,,,,,,0,2,2,2,,,,,,,,,,,,,,,,,,,,,,,,,,,,,23.136106100000006,,,,,,,,,,,,,,,,,,,,,,,,,23.122263400000065,23.136106100000006,23.136106100000006,23.136106100000006,23.136106100000006,23.422016000000212,None,23.422283000000107,23.435920800000076,23.435920800000076,23.435920800000076,23.435920800000076,23.723949800000128,None,,,,,23.435920800000076,23.435920800000076,23.435920800000076,23.435920800000076,,,,,169506,001,2025-03-24_16h06.14.759,Estimulo_ICE,2024.2.4,60.05338746139349,2025-03-24 16h06.29.871999 -0300,
Estimulo_5,3,3,0,4.1,-4.1,4.1,-4.1,2.2,-2.2,-2.2,2.2,,,,,,,None,None,,,,,0,1,1,4,,,,,,,,,,,,,,,,,0,3,3,3,,,,,,,,,,,,,,,,,,,,,,,,,,,,,23.736385800000107,,,,,,,,,,,,,,,,,,,,,,,,,23.724627000000055,23.736385800000107,23.736385800000107,23.736385800000107,23.736385800000107,24.02208870000004,None,24.022353700000167,24.036301200000025,24.036301200000025,24.036301200000025,24.036301200000025,24.32210410000016,None,24.336197800000036,24.336197800000036,24.336197800000036,24.336197800000036,24.036301200000025,24.036301200000025,24.036301200000025,24.036301200000025,,,,,169506,001,2025-03-24_16h06.14.759,Estimulo_ICE,2024.2.4,60.05338746139349,2025-03-24 16h06.29.871999 -0300,
Estimulo_5,4,4,0,4,-4,4,-4,2.2,-2.2,-2.2,2.2,,,,,,,None,None,,,,,0,1,1,4,,,,,,,,,,,,,,,,,0,4,4,4,,,,,,,,,,,,,,,,,,,,,,,,,,,,,24.336197800000036,,,,,,,,,,,,,,,,,,,,,,,,,24.322494700000107,24.336197800000036,24.336197800000036,24.336197800000036,24.336197800000036,24.622107200000073,None,24.62237570000002,24.63622760000021,24.63622760000021,24.63622760000021,24.63622760000021,24.922068600000102,None,24.939366600000085,24.939366600000085,24.939366600000085,24.939366600000085,24.63622760000021,24.63622760000021,24.63622760000021,24.63622760000021,,,,,169506,001,2025-03-24_16h06.14.759,Estimulo_ICE,2024.2.4,60.05338746139349,2025-03-24 16h06.29.871999 -0300,
Estimulo_5,5,5,0,3.9,-3.9,3.9,-3.9,2.2,-2.2,-2.2,2.2,,,,,,,['right'],None,[0.15148569999996653],[None],,,0,1,1,4,,,,,,,,,,,,,,,,,0,5,5,5,,,,,,,,,,,,,,,,,,,,,,,,,,,,,24.939366600000085,,,,,,,,,,,,,,,,,,,,,,,,,24.92245680000019,24.939366600000085,24.939366600000085,24.939366600000085,24.939366600000085,25.223559600000044,['right'],25.22401250000007,25.236778300000196,25.236778300000196,25.236778300000196,25.236778300000196,25.523735400000078,None,,,,,,,,,[0.15148569999996653],[None],,,169506,001,2025-03-24_16h06.14.759,Estimulo_ICE,2024.2.4,60.05338746139349,2025-03-24 16h06.29.871999 -0300,
Estimulo_5,6,6,0,3.8,-3.8,3.8,-3.8,2.2,-2.2,-2.2,2.2,,,,,,,None,None,,,,,0,1,1,4,,,,,,,,,,,,,,,,,0,6,6,6,,,,,,,,,,,,,,,,,,,,,,,,,,,,,25.536639900000182,,,,,,,,,,,,,,,,,,,,,,,,,25.52436160000002,25.536639900000182,25.536639900000182,25.536639900000182,25.536639900000182,25.823449700000083,None,25.823856000000205,25.836720500000183,25.836720500000183,25.836720500000183,25.836720500000183,26.122458700000152,None,26.136163900000156,26.136163900000156,26.136163900000156,26.136163900000156,,,,,,,,,169506,001,2025-03-24_16h06.14.759,Estimulo_ICE,2024.2.4,60.05338746139349,2025-03-24 16h06.29.871999 -0300,
Estimulo_5,7,7,0,3.7,-3.7,3.7,-3.7,2.2,-2.2,-2.2,2.2,,,,,,,['right'],None,[0.08297489999995378],[0.13538960000005318],,,0,1,1,4,,,,,,,,,,,,,,,,,0,7,7,7,,,,,,,,,,,,,,,,,,,,,,,,,,,,,26.136163900000156,,,,,,,,,,,,,,,,,,,,,,,,,26.122884600000134,26.136163900000156,26.136163900000156,26.136163900000156,26.136163900000156,26.422490600000174,['right'],26.422854400000006,26.43644130000007,26.43644130000007,26.43644130000007,26.43644130000007,26.72247440000001,None,,,,,,,,,[0.08297489999995378],[0.13538960000005318],,,169506,001,2025-03-24_16h06.14.759,Estimulo_ICE,2024.2.4,60.05338746139349,2025-03-24 16h06.29.871999 -0300,
Estimulo_5,8,8,0,3.6,-3.6,3.6,-3.6,2.2,-2.2,-2.2,2.2,,,,,,,None,['right'],,,[0.15036239999994905],[None],0,1,1,4,,,,,,,,,,,,,,,,,0,8,8,8,,,,,,,,,,,,,,,,,,,,,,,,,,,,,26.736417200000005,,,,,,,,,,,,,,,,,,,,,,,,,26.72294960000022,26.736417200000005,26.736417200000005,26.736417200000005,26.736417200000005,27.02263280000011,None,27.022962300000017,27.036359300000186,27.036359300000186,27.036359300000186,27.036359300000186,27.322591900000134,['right'],,,,,,,,,,,[0.15036239999994905],[None],169506,001,2025-03-24_16h06.14.759,Estimulo_ICE,2024.2.4,60.05338746139349,2025-03-24 16h06.29.871999 -0300,
Estimulo_5,9,9,0,3.5,-3.5,3.5,-3.5,2.2,-2.2,-2.2,2.2,,,,,,,None,None,,,,,0,1,1,4,,,,,,,,,,,,,,,,,0,9,9,9,,,,,,,,,,,,,,,,,,,,,,,,,,,,,27.336283700000195,,,,,,,,,,,,,,,,,,,,,,,,,27.323118600000043,27.336283700000195,27.336283700000195,27.336283700000195,27.336283700000195,27.622884700000213,None,27.623236300000144,27.636416300000064,27.636416300000064,27.636416300000064,27.636416300000064,27.922334200000023,None,27.93632200000002,27.93632200000002,27.93632200000002,27.93632200000002,,,,,,,,,169506,001,2025-03-24_16h06.14.759,Estimulo_ICE,2024.2.4,60.05338746139349,2025-03-24 16h06.29.871999 -0300,
Estimulo_5,10,10,0,3.39999999999999,-3.39999999999999,3.39999999999999,-3.39999999999999,2.2,-2.2,-2.2,2.2,,,,,,,None,None,,,,,0,1,1,4,,,,,,,,,,,,,,,,,0,10,10,10,,,,,,,,,,,,,,,,,,,,,,,,,,,,,27.93632200000002,,,,,,,,,,,,,,,,,,,,,,,,,27.92272220000018,27.93632200000002,27.93632200000002,27.93632200000002,27.93632200000002,28.222203800000216,None,28.2224705000001,28.236013500000126,28.236013500000126,28.236013500000126,28.236013500000126,28.522073700000192,None,28.536179300000185,28.536179300000185,28.536179300000185,28.536179300000185,28.236013500000126,28.236013500000126,28.236013500000126,28.236013500000126,,,,,169506,001,2025-03-24_16h06.14.759,Estimulo_ICE,2024.2.4,60.05338746139349,2025-03-24 16h06.29.871999 -0300,
Estimulo_5,11,11,0,3.29999999999999,-3.29999999999999,3.29999999999999,-3.29999999999999,2.2,-2.2,-2.2,2.2,,,,,,,None,None,,,,,0,1,1,4,,,,,,,,,,,,,,,,,0,11,11,11,,,,,,,,,,,,,,,,,,,,,,,,,,,,,28.536179300000185,,,,,,,,,,,,,,,,,,,,,,,,,28.522443300000077,28.536179300000185,28.536179300000185,28.536179300000185,28.536179300000185,28.822106400000166,None,28.82238550000011,28.83615020000002,28.83615020000002,28.83615020000002,28.83615020000002,29.12219550000009,None,,,,,28.83615020000002,28.83615020000002,28.83615020000002,28.83615020000002,,,,,169506,001,2025-03-24_16h06.14.759,Estimulo_ICE,2024.2.4,60.05338746139349,2025-03-24 16h06.29.871999 -0300,
,12,12,0,3.19999999999999,-3.19999999999999,3.19999999999999,-3.19999999999999,2.2,-2.2,-2.2,2.2,,,,,,,,,,,,,,,,,,,,,,,,,,,,,,,,,0,12,12,12,,,,,,,,,,,,,,,,,,,,,,,,,,,,,29.136191700000154,,,,,,,,,,,,,,,,,,,,,,,,,29.122672400000056,29.136191700000154,29.136191700000154,29.136191700000154,29.136191700000154,,,,,,,,,,,,,,,,,,,,,,,,,,,,,
