LoopName,thisN,thisTrialN,thisRepN,px1,px2,px3,px4,py1,py2,py3,py4,MainLoop.thisRepN,MainLoop.thisTrialN,MainLoop.thisN,MainLoop.thisIndex,loop_1.thisRepN,loop_1.thisTrialN,loop_1.thisN,loop_1.thisIndex,loop_2.thisRepN,loop_2.thisTrialN,loop_2.thisN,loop_2.thisIndex,loop_3.thisRepN,loop_3.thisTrialN,loop_3.thisN,loop_3.thisIndex,loop_4.thisRepN,loop_4.thisTrialN,loop_4.thisN,loop_4.thisIndex,loop_5.thisRepN,loop_5.thisTrialN,loop_5.thisN,loop_5.thisIndex,loop_6.thisRepN,loop_6.thisTrialN,loop_6.thisN,loop_6.thisIndex,loop_7.thisRepN,loop_7.thisTrialN,loop_7.thisN,loop_7.thisIndex,loop_8.thisRepN,loop_8.thisTrialN,loop_8.thisN,loop_8.thisIndex,thisRow.t,notes,codigo.started,codigo.stopped,trial.started,image.started,image_2.started,trial.stopped,trial_2.started,image_3.started,image_4.started,image_3.stopped,image_4.stopped,trial_2.stopped,image.stopped,image_2.stopped,trial_3.started,image_5.started,image_6.started,trial_3.stopped,trial_4.started,image_7.started,image_8.started,image_7.stopped,image_8.stopped,trial_4.stopped,image_5.stopped,image_6.stopped,participant,session,date,expName,psychopyVersion,frameRate,expStart,
Estimulo_3,0,0,0,2.2,-2.2,-2.2,2.2,4.4,-4.4,4.4,-4.4,0,0,0,1,,,,,,,,,0,0,0,0,,,,,,,,,,,,,,,,,,,,,0.07180059980601072,,0.03664569999091327,0.03693019994534552,0.06435669981874526,0.07180059980601072,0.07180059980601072,0.33979439991526306,0.33995829988271,0.34476709994487464,0.34476709994487464,0.636615099851042,0.636615099851042,0.6314005998428911,,,,,,,,,,,,,,,207799,001,2025-03-13_01h49.20.650,Estimulo_ICE,2024.2.4,143.64452040259528,2025-03-13 01h49.23.904732 -0300,
Estimulo_3,1,1,0,2.2,-2.2,-2.2,2.2,4.3,-4.3,4.3,-4.3,0,0,0,1,,,,,,,,,0,1,1,1,,,,,,,,,,,,,,,,,,,,,0.636615099851042,,,,0.6316819000057876,0.636615099851042,0.636615099851042,0.9219175998587161,0.9220942999236286,0.9273993999231607,0.9273993999231607,1.2192642998415977,1.2192642998415977,1.214266899973154,0.9273993999231607,0.9273993999231607,,,,,,,,,,,,,207799,001,2025-03-13_01h49.20.650,Estimulo_ICE,2024.2.4,143.64452040259528,2025-03-13 01h49.23.904732 -0300,
Estimulo_3,2,2,0,2.2,-2.2,-2.2,2.2,4.2,-4.2,4.2,-4.2,0,0,0,1,,,,,,,,,0,2,2,2,,,,,,,,,,,,,,,,,,,,,1.2192642998415977,,,,1.2146177999675274,1.2328593998681754,1.2328593998681754,1.5197748998180032,1.5199543999042362,1.5315743999090046,1.5315743999090046,1.823199899867177,1.823199899867177,1.818264199886471,1.5246530999429524,1.5246530999429524,,,,,,,,,,,,,207799,001,2025-03-13_01h49.20.650,Estimulo_ICE,2024.2.4,143.64452040259528,2025-03-13 01h49.23.904732 -0300,
Estimulo_3,3,3,0,2.2,-2.2,-2.2,2.2,4.1,-4.1,4.1,-4.1,0,0,0,1,,,,,,,,,0,3,3,3,,,,,,,,,,,,,,,,,,,,,1.823199899867177,,,,1.818540500011295,1.8300576999317855,1.8300576999317855,2.1168632998596877,2.1170407999306917,2.1288066999986768,2.1288066999986768,2.4204584998078644,2.4204584998078644,2.415402099955827,2.1217427998781204,2.1217427998781204,,,,,,,,,,,,,207799,001,2025-03-13_01h49.20.650,Estimulo_ICE,2024.2.4,143.64452040259528,2025-03-13 01h49.23.904732 -0300,
Estimulo_3,4,4,0,2.2,-2.2,-2.2,2.2,4,-4,4,-4,0,0,0,1,,,,,,,,,0,4,4,4,,,,,,,,,,,,,,,,,,,,,2.4204584998078644,,,,2.415672999806702,2.4273452998604625,2.4273452998604625,2.7154299998655915,2.7156030000187457,2.728077600011602,2.728077600011602,3.0193361998535693,3.0193361998535693,3.014437799807638,2.720384299987927,2.720384299987927,,,,,,,,,,,,,207799,001,2025-03-13_01h49.20.650,Estimulo_ICE,2024.2.4,143.64452040259528,2025-03-13 01h49.23.904732 -0300,
Estimulo_3,5,5,0,2.2,-2.2,-2.2,2.2,3.9,-3.9,3.9,-3.9,0,0,0,1,,,,,,,,,0,5,5,5,,,,,,,,,,,,,,,,,,,,,3.0193361998535693,,,,3.014703399967402,3.02647399995476,3.02647399995476,3.312348899897188,3.3125216998159885,3.3311329998541623,3.3311329998541623,3.622989699942991,3.622989699942991,3.6179036998655647,3.317423400003463,3.317423400003463,,,,,,,,,,,,,207799,001,2025-03-13_01h49.20.650,Estimulo_ICE,2024.2.4,143.64452040259528,2025-03-13 01h49.23.904732 -0300,
Estimulo_3,6,6,0,2.2,-2.2,-2.2,2.2,3.8,-3.8,3.8,-3.8,0,0,0,1,,,,,,,,,0,6,6,6,,,,,,,,,,,,,,,,,,,,,3.622989699942991,,,,3.618172099813819,3.6298850998282433,3.6298850998282433,3.916594799840823,3.9167669999878854,3.928526399889961,3.928526399889961,4.220049999887124,4.220049999887124,4.21522709983401,3.9216808998025954,3.9216808998025954,,,,,,,,,,,,,207799,001,2025-03-13_01h49.20.650,Estimulo_ICE,2024.2.4,143.64452040259528,2025-03-13 01h49.23.904732 -0300,
Estimulo_3,7,7,0,2.2,-2.2,-2.2,2.2,3.7,-3.7,3.7,-3.7,0,0,0,1,,,,,,,,,0,7,7,7,,,,,,,,,,,,,,,,,,,,,4.220049999887124,,,,4.215550399851054,4.227217599982396,4.227217599982396,4.5139005000237375,4.5140749998390675,4.5326449000276625,4.5326449000276625,4.824351999908686,4.824351999908686,4.819670700002462,4.518792900023982,4.518792900023982,,,,,,,,,,,,,207799,001,2025-03-13_01h49.20.650,Estimulo_ICE,2024.2.4,143.64452040259528,2025-03-13 01h49.23.904732 -0300,
Estimulo_3,8,8,0,2.2,-2.2,-2.2,2.2,3.6,-3.6,3.6,-3.6,0,0,0,1,,,,,,,,,0,8,8,8,,,,,,,,,,,,,,,,,,,,,4.824351999908686,,,,4.8199343997985125,4.831358999945223,4.831358999945223,5.11950849997811,5.119682099903002,5.131568799959496,5.131568799959496,5.422598499804735,5.422598499804735,5.417979599907994,5.124775499803945,5.124775499803945,,,,,,,,,,,,,207799,001,2025-03-13_01h49.20.650,Estimulo_ICE,2024.2.4,143.64452040259528,2025-03-13 01h49.23.904732 -0300,
Estimulo_3,9,9,0,2.2,-2.2,-2.2,2.2,3.5,-3.5,3.5,-3.5,0,0,0,1,,,,,,,,,0,9,9,9,,,,,,,,,,,,,,,,,,,,,5.422598499804735,,,,5.418303199810907,5.429677899926901,5.429677899926901,5.716329399961978,5.716566799907014,5.72833069995977,5.72833069995977,6.019840799970552,6.019840799970552,6.015121900010854,5.721102299867198,5.721102299867198,,,,,,,,,,,,,207799,001,2025-03-13_01h49.20.650,Estimulo_ICE,2024.2.4,143.64452040259528,2025-03-13 01h49.23.904732 -0300,
Estimulo_3,10,10,0,2.2,-2.2,-2.2,2.2,3.39999999999999,-3.39999999999999,3.39999999999999,-3.39999999999999,0,0,0,1,,,,,,,,,0,10,10,10,,,,,,,,,,,,,,,,,,,,,6.019840799970552,,,,6.015388899948448,6.026878499891609,6.026878499891609,6.3135253000073135,6.313700399827212,6.332439600024372,6.332439600024372,6.624197999946773,6.624197999946773,6.619126899866387,6.318448500009254,6.318448500009254,,,,,,,,,,,,,207799,001,2025-03-13_01h49.20.650,Estimulo_ICE,2024.2.4,143.64452040259528,2025-03-13 01h49.23.904732 -0300,
Estimulo_3,11,11,0,2.2,-2.2,-2.2,2.2,3.29999999999999,-3.29999999999999,3.29999999999999,-3.29999999999999,0,0,0,1,,,,,,,,,0,11,11,11,,,,,,,,,,,,,,,,,,,,,6.624197999946773,,,,6.619439499918371,6.631143399979919,6.631143399979919,6.917702700011432,6.917878299951553,6.929719799896702,6.929719799896702,7.222976499935612,7.222976499935612,7.21796749997884,6.922580299898982,6.922580299898982,,,,,,,,,,,,,207799,001,2025-03-13_01h49.20.650,Estimulo_ICE,2024.2.4,143.64452040259528,2025-03-13 01h49.23.904732 -0300,
Estimulo_3,12,12,0,2.2,-2.2,-2.2,2.2,3.19999999999999,-3.19999999999999,3.19999999999999,-3.19999999999999,0,0,0,1,,,,,,,,,0,12,12,12,,,,,,,,,,,,,,,,,,,,,7.222976499935612,,,,7.218233899911866,7.230851999949664,7.230851999949664,7.516698400024325,7.516931899823248,7.52834999980405,7.52834999980405,7.819555799942464,7.819555799942464,7.814658799907193,7.521762399934232,7.521762399934232,,,,,,,,,,,,,207799,001,2025-03-13_01h49.20.650,Estimulo_ICE,2024.2.4,143.64452040259528,2025-03-13 01h49.23.904732 -0300,
Estimulo_3,13,13,0,2.2,-2.2,-2.2,2.2,3.09999999999999,-3.09999999999999,3.09999999999999,-3.09999999999999,0,0,0,1,,,,,,,,,0,13,13,13,,,,,,,,,,,,,,,,,,,,,7.819555799942464,,,,7.814939899835736,7.826484899967909,7.826484899967909,8.113545399857685,8.11372089991346,8.132059099851176,8.132059099851176,8.423818700015545,8.423818700015545,8.418837099801749,8.118318499997258,8.118318499997258,,,,,,,,,,,,,207799,001,2025-03-13_01h49.20.650,Estimulo_ICE,2024.2.4,143.64452040259528,2025-03-13 01h49.23.904732 -0300,
Estimulo_3,14,14,0,2.2,-2.2,-2.2,2.2,2.99999999999999,-2.99999999999999,2.99999999999999,-2.99999999999999,0,0,0,1,,,,,,,,,0,14,14,14,,,,,,,,,,,,,,,,,,,,,8.423818700015545,,,,8.419108900008723,8.430814899969846,8.430814899969846,8.717638999922201,8.71781379985623,8.729406599886715,8.729406599886715,9.021056199911982,9.021056199911982,9.015980699798092,8.72233169991523,8.72233169991523,,,,,,,,,,,,,207799,001,2025-03-13_01h49.20.650,Estimulo_ICE,2024.2.4,143.64452040259528,2025-03-13 01h49.23.904732 -0300,
Estimulo_3,15,15,0,2.2,-2.2,-2.2,2.2,2.89999999999999,-2.89999999999999,2.89999999999999,-2.89999999999999,0,0,0,1,,,,,,,,,0,15,15,15,,,,,,,,,,,,,,,,,,,,,9.021056199911982,,,,9.01627629995346,9.027921499917284,9.027921499917284,9.314635399961844,9.314811500022188,9.326561099849641,9.326561099849641,9.620104199973866,9.620104199973866,9.614954899996519,9.319602299947292,9.319602299947292,,,,,,,,,,,,,207799,001,2025-03-13_01h49.20.650,Estimulo_ICE,2024.2.4,143.64452040259528,2025-03-13 01h49.23.904732 -0300,
Estimulo_3,16,16,0,2.2,-2.2,-2.2,2.2,2.79999999999999,-2.79999999999999,2.79999999999999,-2.79999999999999,0,0,0,1,,,,,,,,,0,16,16,16,,,,,,,,,,,,,,,,,,,,,9.620104199973866,,,,9.615219000028446,9.62693539983593,9.62693539983593,9.9131597999949,9.91333909984678,9.931843400001526,9.931843400001526,10.223613200010732,10.223613200010732,10.218649299815297,9.918117000022903,9.918117000022903,,,,,,,,,,,,,207799,001,2025-03-13_01h49.20.650,Estimulo_ICE,2024.2.4,143.64452040259528,2025-03-13 01h49.23.904732 -0300,
Estimulo_3,17,17,0,2.2,-2.2,-2.2,2.2,2.69999999999999,-2.69999999999999,2.69999999999999,-2.69999999999999,0,0,0,1,,,,,,,,,0,17,17,17,,,,,,,,,,,,,,,,,,,,,10.223613200010732,,,,10.218912799842656,10.230405599810183,10.230405599810183,10.517257499974221,10.517431899905205,10.529229999985546,10.529229999985546,10.820877599995583,10.820877599995583,10.815798899857327,10.522274099988863,10.522274099988863,,,,,,,,,,,,,207799,001,2025-03-13_01h49.20.650,Estimulo_ICE,2024.2.4,143.64452040259528,2025-03-13 01h49.23.904732 -0300,
Estimulo_3,18,18,0,2.2,-2.2,-2.2,2.2,2.59999999999999,-2.59999999999999,2.59999999999999,-2.59999999999999,0,0,0,1,,,,,,,,,0,18,18,18,,,,,,,,,,,,,,,,,,,,,10.820877599995583,,,,10.816063199890777,10.82780579989776,10.82780579989776,11.114514499902725,11.114754699869081,11.126469699898735,11.126469699898735,11.418008399894461,11.418008399894461,11.413081099977717,11.119350199820474,11.119350199820474,,,,,,,,,,,,,207799,001,2025-03-13_01h49.20.650,Estimulo_ICE,2024.2.4,143.64452040259528,2025-03-13 01h49.23.904732 -0300,
Estimulo_3,19,19,0,2.2,-2.2,-2.2,2.2,2.49999999999999,-2.49999999999999,2.49999999999999,-2.49999999999999,0,0,0,1,,,,,,,,,0,19,19,19,,,,,,,,,,,,,,,,,,,,,11.418008399894461,,,,11.413347999798134,11.432018999941647,11.432018999941647,11.720288899959996,11.720463800011203,11.73249590001069,11.73249590001069,12.02324299979955,12.02324299979955,12.018484900007024,11.72537330002524,11.72537330002524,,,,,,,,,,,,,207799,001,2025-03-13_01h49.20.650,Estimulo_ICE,2024.2.4,143.64452040259528,2025-03-13 01h49.23.904732 -0300,
Estimulo_3,20,20,0,2.2,-2.2,-2.2,2.2,2.39999999999999,-2.39999999999999,2.39999999999999,-2.39999999999999,0,0,0,1,,,,,,,,,0,20,20,20,,,,,,,,,,,,,,,,,,,,,12.02324299979955,,,,12.018757099984214,12.03036309988238,12.03036309988238,12.31696409988217,12.31718169990927,12.328883599955589,12.328883599955589,12.62063269992359,12.62063269992359,12.61548179993406,12.321963099995628,12.321963099995628,,,,,,,,,,,,,207799,001,2025-03-13_01h49.20.650,Estimulo_ICE,2024.2.4,143.64452040259528,2025-03-13 01h49.23.904732 -0300,
Estimulo_3,21,21,0,2.2,-2.2,-2.2,2.2,2.29999999999999,-2.29999999999999,2.29999999999999,-2.29999999999999,0,0,0,1,,,,,,,,,0,21,21,21,,,,,,,,,,,,,,,,,,,,,12.62063269992359,,,,12.615748399868608,12.627554700011387,12.627554700011387,12.914202600019053,12.914378699846566,12.933149799937382,12.933149799937382,13.224801499862224,13.224801499862224,13.22005429980345,12.919103499967605,12.919103499967605,,,,,,,,,,,,,207799,001,2025-03-13_01h49.20.650,Estimulo_ICE,2024.2.4,143.64452040259528,2025-03-13 01h49.23.904732 -0300,
Estimulo_3,22,22,0,2.2,-2.2,-2.2,2.2,2.19999999999999,-2.19999999999999,2.19999999999999,-2.19999999999999,0,0,0,1,,,,,,,,,0,22,22,22,,,,,,,,,,,,,,,,,,,,,13.224801499862224,,,,13.220329999923706,13.231760900001973,13.231760900001973,13.518734799930826,13.518911599880084,13.530209699878469,13.530209699878469,13.823634299915284,13.823634299915284,13.818677200004458,13.523388199973851,13.523388199973851,,,,,,,,,,,,,207799,001,2025-03-13_01h49.20.650,Estimulo_ICE,2024.2.4,143.64452040259528,2025-03-13 01h49.23.904732 -0300,
Estimulo_3,23,23,0,2.2,-2.2,-2.2,2.2,2.09999999999999,-2.09999999999999,2.09999999999999,-2.09999999999999,0,0,0,1,,,,,,,,,0,23,23,23,,,,,,,,,,,,,,,,,,,,,13.823634299915284,,,,13.818943799939007,13.83053719997406,13.83053719997406,14.11749989981763,14.117692299885675,14.129369999980554,14.129369999980554,14.420328799868003,14.420328799868003,14.415296399965882,14.12210759986192,14.12210759986192,,,,,,,,,,,,,207799,001,2025-03-13_01h49.20.650,Estimulo_ICE,2024.2.4,143.64452040259528,2025-03-13 01h49.23.904732 -0300,
Estimulo_3,24,24,0,2.2,-2.2,-2.2,2.2,1.99999999999999,-1.99999999999999,1.99999999999999,-1.99999999999999,0,0,0,1,,,,,,,,,0,24,24,24,,,,,,,,,,,,,,,,,,,,,14.420328799868003,,,,14.415566899813712,14.427200299920514,14.427200299920514,14.713948299875483,14.71412259992212,14.732918499968946,14.732918499968946,15.024410199839622,15.024410199839622,15.019487399840727,14.71888539986685,14.71888539986685,,,,,,,,,,,,,207799,001,2025-03-13_01h49.20.650,Estimulo_ICE,2024.2.4,143.64452040259528,2025-03-13 01h49.23.904732 -0300,
Estimulo_3,25,25,0,2.2,-2.2,-2.2,2.2,1.89999999999999,-1.89999999999999,1.89999999999999,-1.89999999999999,0,0,0,1,,,,,,,,,0,25,25,25,,,,,,,,,,,,,,,,,,,,,15.024410199839622,,,,15.019752399995923,15.031495099887252,15.031495099887252,15.318418999901041,15.318633399903774,15.330073999939486,15.330073999939486,15.621732499916106,15.621732499916106,15.616715400014073,15.323144000023603,15.323144000023603,,,,,,,,,,,,,207799,001,2025-03-13_01h49.20.650,Estimulo_ICE,2024.2.4,143.64452040259528,2025-03-13 01h49.23.904732 -0300,
Estimulo_3,26,26,0,2.2,-2.2,-2.2,2.2,1.79999999999999,-1.79999999999999,1.79999999999999,-1.79999999999999,0,0,0,1,,,,,,,,,0,26,26,26,,,,,,,,,,,,,,,,,,,,,15.621732499916106,,,,15.616984599968418,15.628616699948907,15.628616699948907,15.915337399812415,15.915513999992982,15.927175599848852,15.927175599848852,16.220755900023505,16.220755900023505,16.215692600002512,15.920357999857515,15.920357999857515,,,,,,,,,,,,,207799,001,2025-03-13_01h49.20.650,Estimulo_ICE,2024.2.4,143.64452040259528,2025-03-13 01h49.23.904732 -0300,
Estimulo_3,27,27,0,2.2,-2.2,-2.2,2.2,1.69999999999999,-1.69999999999999,1.69999999999999,-1.69999999999999,0,0,0,1,,,,,,,,,0,27,27,27,,,,,,,,,,,,,,,,,,,,,16.220755900023505,,,,16.21596679999493,16.227572799893096,16.227572799893096,16.513631499838084,16.513804799877107,16.53255039989017,16.53255039989017,16.824163999874145,16.824163999874145,16.81941260001622,16.518625299911946,16.518625299911946,,,,,,,,,,,,,207799,001,2025-03-13_01h49.20.650,Estimulo_ICE,2024.2.4,143.64452040259528,2025-03-13 01h49.23.904732 -0300,
Estimulo_3,28,28,0,2.2,-2.2,-2.2,2.2,1.59999999999999,-1.59999999999999,1.59999999999999,-1.59999999999999,0,0,0,1,,,,,,,,,0,28,28,28,,,,,,,,,,,,,,,,,,,,,16.824163999874145,,,,16.81967949983664,16.83114769984968,16.83114769984968,17.117837799945846,17.118020699825138,17.129859799984843,17.129859799984843,17.42148319981061,17.42148319981061,17.416562999831513,17.122927099931985,17.122927099931985,,,,,,,,,,,,,207799,001,2025-03-13_01h49.20.650,Estimulo_ICE,2024.2.4,143.64452040259528,2025-03-13 01h49.23.904732 -0300,
Estimulo_3,29,29,0,2.2,-2.2,-2.2,2.2,1.49999999999998,-1.49999999999998,1.49999999999998,-1.49999999999998,0,0,0,1,,,,,,,,,0,29,29,29,,,,,,,,,,,,,,,,,,,,,17.42148319981061,,,,17.416827799985185,17.42845009989105,17.42845009989105,17.71499569993466,17.715178999817,17.72707979986444,17.72707979986444,18.01867110002786,18.01867110002786,18.01371829980053,17.720134599832818,17.720134599832818,,,,,,,,,,,,,207799,001,2025-03-13_01h49.20.650,Estimulo_ICE,2024.2.4,143.64452040259528,2025-03-13 01h49.23.904732 -0300,
Estimulo_3,30,30,0,2.2,-2.2,-2.2,2.2,1.39999999999998,-1.39999999999998,1.39999999999998,-1.39999999999998,0,0,0,1,,,,,,,,,0,30,30,30,,,,,,,,,,,,,,,,,,,,,18.01867110002786,,,,18.013984099961817,18.032514699967578,18.032514699967578,18.320932099828497,18.32110790000297,18.332868799800053,18.332868799800053,18.623637799872085,18.623637799872085,18.618533300003037,18.32590109994635,18.32590109994635,,,,,,,,,,,,,207799,001,2025-03-13_01h49.20.650,Estimulo_ICE,2024.2.4,143.64452040259528,2025-03-13 01h49.23.904732 -0300,
Estimulo_3,31,31,0,2.2,-2.2,-2.2,2.2,1.29999999999998,-1.29999999999998,1.29999999999998,-1.29999999999998,0,0,0,1,,,,,,,,,0,31,31,31,,,,,,,,,,,,,,,,,,,,,18.623637799872085,,,,18.61879889992997,18.63103159982711,18.63103159982711,18.91766139981337,18.917836599983275,18.929340599803254,18.929340599803254,19.22113800002262,19.22113800002262,19.216230700025335,18.922481099842116,18.922481099842116,,,,,,,,,,,,,207799,001,2025-03-13_01h49.20.650,Estimulo_ICE,2024.2.4,143.64452040259528,2025-03-13 01h49.23.904732 -0300,
Estimulo_3,32,32,0,2.2,-2.2,-2.2,2.2,1.19999999999998,-1.19999999999998,1.19999999999998,-1.19999999999998,0,0,0,1,,,,,,,,,0,32,32,32,,,,,,,,,,,,,,,,,,,,,19.22113800002262,,,,19.216503700008616,19.22806079988368,19.22806079988368,19.515121100004762,19.515296399826184,19.526800099993125,19.526800099993125,19.818335099844262,19.818335099844262,19.813549799844623,19.519847499905154,19.519847499905154,,,,,,,,,,,,,207799,001,2025-03-13_01h49.20.650,Estimulo_ICE,2024.2.4,143.64452040259528,2025-03-13 01h49.23.904732 -0300,
Estimulo_3,33,33,0,2.2,-2.2,-2.2,2.2,1.09999999999998,-1.09999999999998,1.09999999999998,-1.09999999999998,0,0,0,1,,,,,,,,,0,33,33,33,,,,,,,,,,,,,,,,,,,,,19.818335099844262,,,,19.813821399817243,19.83236729982309,19.83236729982309,20.118858499918133,20.119033199967816,20.131010399898514,20.131010399898514,20.478509599808604,20.478509599808604,20.417476299917325,20.123881899984553,20.123881899984553,,,,,,,,,,,,,207799,001,2025-03-13_01h49.20.650,Estimulo_ICE,2024.2.4,143.64452040259528,2025-03-13 01h49.23.904732 -0300,
Estimulo_3,0,0,0,,,,,,,,,0,0,0,1,,,,,,,,,,,,,,,,,,,,,,,,,,,,,,,,,,,,,,,,,,,,,,,,,,,,,,,,,,,,,207799,001,2025-03-13_01h49.20.650,Estimulo_ICE,2024.2.4,143.64452040259528,2025-03-13 01h49.23.904732 -0300,
Estimulo_1,0,0,0,4.4,-4.4,4.4,-4.4,2.2,-2.2,-2.2,2.2,0,1,1,0,0,0,0,0,,,,,,,,,,,,,,,,,,,,,,,,,,,,,20.478509599808604,,20.466382999904454,20.466659999918193,20.474219899857417,20.478509599808604,20.478509599808604,20.766693399986252,20.76687779999338,20.77153759985231,20.77153759985231,21.062735999934375,21.062735999934375,21.057512399973348,20.77153759985231,20.77153759985231,,,,,,,,,,,,,207799,001,2025-03-13_01h49.20.650,Estimulo_ICE,2024.2.4,143.64452040259528,2025-03-13 01h49.23.904732 -0300,
Estimulo_1,1,1,0,4.3,-4.3,4.3,-4.3,2.2,-2.2,-2.2,2.2,0,1,1,0,0,1,1,1,,,,,,,,,,,,,,,,,,,,,,,,,,,,,21.062735999934375,,,,21.057778799906373,21.062735999934375,21.062735999934375,21.34927079989575,21.349445099942386,21.361284999875352,21.361284999875352,21.652941999956965,21.652941999956965,21.647942799841985,21.35437579988502,21.35437579988502,,,,,,,,,,,,,207799,001,2025-03-13_01h49.20.650,Estimulo_ICE,2024.2.4,143.64452040259528,2025-03-13 01h49.23.904732 -0300,
Estimulo_1,2,2,0,4.2,-4.2,4.2,-4.2,2.2,-2.2,-2.2,2.2,0,1,1,0,0,2,2,2,,,,,,,,,,,,,,,,,,,,,,,,,,,,,21.652941999956965,,,,21.648214699933305,21.65990770002827,21.65990770002827,21.946548899868503,21.94672270002775,21.95843779994175,21.95843779994175,22.250194899970666,22.250194899970666,22.245263299904764,21.95154789998196,21.95154789998196,,,,,,,,,,,,,207799,001,2025-03-13_01h49.20.650,Estimulo_ICE,2024.2.4,143.64452040259528,2025-03-13 01h49.23.904732 -0300,
Estimulo_1,3,3,0,4.1,-4.1,4.1,-4.1,2.2,-2.2,-2.2,2.2,0,1,1,0,0,3,3,3,,,,,,,,,,,,,,,,,,,,,,,,,,,,,22.250194899970666,,,,22.245587199926376,22.25702939997427,22.25702939997427,22.543832399882376,22.54405579995364,22.56277889991179,22.56277889991179,22.856274399906397,22.856274399906397,22.850770799908787,22.548775599803776,22.548775599803776,,,,,,,,,,,,,207799,001,2025-03-13_01h49.20.650,Estimulo_ICE,2024.2.4,143.64452040259528,2025-03-13 01h49.23.904732 -0300,
Estimulo_1,4,4,0,4,-4,4,-4,2.2,-2.2,-2.2,2.2,0,1,1,0,0,4,4,4,,,,,,,,,,,,,,,,,,,,,,,,,,,,,22.856274399906397,,,,22.851036799838766,22.862991499947384,22.862991499947384,23.14978410000913,23.149961499962956,23.16173499985598,23.16173499985598,23.452694799983874,23.452694799983874,23.447833499871194,23.15460089989938,23.15460089989938,,,,,,,,,,,,,207799,001,2025-03-13_01h49.20.650,Estimulo_ICE,2024.2.4,143.64452040259528,2025-03-13 01h49.23.904732 -0300,
Estimulo_1,5,5,0,3.9,-3.9,3.9,-3.9,2.2,-2.2,-2.2,2.2,0,1,1,0,0,5,5,5,,,,,,,,,,,,,,,,,,,,,,,,,,,,,23.452694799983874,,,,23.448105299845338,23.459659999934956,23.459659999934956,23.746500100009143,23.74671410000883,23.75825920002535,23.75825920002535,24.049729599850252,24.049729599850252,24.04484219988808,23.751322399824858,23.751322399824858,,,,,,,,,,,,,207799,001,2025-03-13_01h49.20.650,Estimulo_ICE,2024.2.4,143.64452040259528,2025-03-13 01h49.23.904732 -0300,
Estimulo_1,6,6,0,3.8,-3.8,3.8,-3.8,2.2,-2.2,-2.2,2.2,0,1,1,0,0,6,6,6,,,,,,,,,,,,,,,,,,,,,,,,,,,,,24.049729599850252,,,,24.045111799845472,24.056795599870384,24.056795599870384,24.343547799857333,24.343727399827912,24.362306699855253,24.362306699855253,24.65410569985397,24.65410569985397,24.649082199903205,24.348546899855137,24.348546899855137,,,,,,,,,,,,,207799,001,2025-03-13_01h49.20.650,Estimulo_ICE,2024.2.4,143.64452040259528,2025-03-13 01h49.23.904732 -0300,
Estimulo_1,7,7,0,3.7,-3.7,3.7,-3.7,2.2,-2.2,-2.2,2.2,0,1,1,0,0,7,7,7,,,,,,,,,,,,,,,,,,,,,,,,,,,,,24.65410569985397,,,,24.649351899977773,24.66105189989321,24.66105189989321,24.947745299898088,24.94792259996757,24.959548499900848,24.959548499900848,25.25298549979925,25.25298549979925,25.248019499937072,24.952560999896377,24.952560999896377,,,,,,,,,,,,,207799,001,2025-03-13_01h49.20.650,Estimulo_ICE,2024.2.4,143.64452040259528,2025-03-13 01h49.23.904732 -0300,
Estimulo_1,8,8,0,3.6,-3.6,3.6,-3.6,2.2,-2.2,-2.2,2.2,0,1,1,0,0,8,8,8,,,,,,,,,,,,,,,,,,,,,,,,,,,,,25.25298549979925,,,,25.248292399803177,25.26009459979832,25.26009459979832,25.546052899910137,25.546251399908215,25.558011599816382,25.558011599816382,25.849693999858573,25.849693999858573,25.8446334998589,25.551022299798205,25.551022299798205,,,,,,,,,,,,,207799,001,2025-03-13_01h49.20.650,Estimulo_ICE,2024.2.4,143.64452040259528,2025-03-13 01h49.23.904732 -0300,
Estimulo_1,9,9,0,3.5,-3.5,3.5,-3.5,2.2,-2.2,-2.2,2.2,0,1,1,0,0,9,9,9,,,,,,,,,,,,,,,,,,,,,,,,,,,,,25.849693999858573,,,,25.84490149980411,25.856616399949417,25.856616399949417,26.143239999888465,26.143415599828586,26.162045100005344,26.162045100005344,26.453887599986047,26.453887599986047,26.44879539986141,26.148168599931523,26.148168599931523,,,,,,,,,,,,,207799,001,2025-03-13_01h49.20.650,Estimulo_ICE,2024.2.4,143.64452040259528,2025-03-13 01h49.23.904732 -0300,
Estimulo_1,10,10,0,3.39999999999999,-3.39999999999999,3.39999999999999,-3.39999999999999,2.2,-2.2,-2.2,2.2,0,1,1,0,0,10,10,10,,,,,,,,,,,,,,,,,,,,,,,,,,,,,26.453887599986047,,,,26.449074500007555,26.46075169998221,26.46075169998221,26.747356500010937,26.74753259983845,26.75949089997448,26.75949089997448,27.051055499818176,27.051055499818176,27.046117599820718,26.752271599834785,26.752271599834785,,,,,,,,,,,,,207799,001,2025-03-13_01h49.20.650,Estimulo_ICE,2024.2.4,143.64452040259528,2025-03-13 01h49.23.904732 -0300,
Estimulo_1,11,11,0,3.29999999999999,-3.29999999999999,3.29999999999999,-3.29999999999999,2.2,-2.2,-2.2,2.2,0,1,1,0,0,11,11,11,,,,,,,,,,,,,,,,,,,,,,,,,,,,,27.051055499818176,,,,27.046391499927267,27.0579142998904,27.0579142998904,27.347315500024706,27.347490599844605,27.35827809991315,27.35827809991315,27.649857699871063,27.649857699871063,27.645127799827605,27.351587099954486,27.351587099954486,,,,,,,,,,,,,207799,001,2025-03-13_01h49.20.650,Estimulo_ICE,2024.2.4,143.64452040259528,2025-03-13 01h49.23.904732 -0300,
Estimulo_1,12,12,0,3.19999999999999,-3.19999999999999,3.19999999999999,-3.19999999999999,2.2,-2.2,-2.2,2.2,0,1,1,0,0,12,12,12,,,,,,,,,,,,,,,,,,,,,,,,,,,,,27.649857699871063,,,,27.645446199923754,27.656736499862745,27.656736499862745,27.943030799971893,27.943206699797884,27.96181289991364,27.96181289991364,28.253492399817333,28.253492399817333,28.248791799880564,27.947972799884155,27.947972799884155,,,,,,,,,,,,,207799,001,2025-03-13_01h49.20.650,Estimulo_ICE,2024.2.4,143.64452040259528,2025-03-13 01h49.23.904732 -0300,
Estimulo_1,13,13,0,3.09999999999999,-3.09999999999999,3.09999999999999,-3.09999999999999,2.2,-2.2,-2.2,2.2,0,1,1,0,0,13,13,13,,,,,,,,,,,,,,,,,,,,,,,,,,,,,28.253492399817333,,,,28.24906409997493,28.26056129997596,28.26056129997596,28.547217699931934,28.54739259998314,28.55903059989214,28.55903059989214,28.850828299997374,28.850828299997374,28.84563699993305,28.552233399823308,28.552233399823308,,,,,,,,,,,,,207799,001,2025-03-13_01h49.20.650,Estimulo_ICE,2024.2.4,143.64452040259528,2025-03-13 01h49.23.904732 -0300,
Estimulo_1,14,14,0,2.99999999999999,-2.99999999999999,2.99999999999999,-2.99999999999999,2.2,-2.2,-2.2,2.2,0,1,1,0,0,14,14,14,,,,,,,,,,,,,,,,,,,,,,,,,,,,,28.850828299997374,,,,28.845907300012186,28.857792499940842,28.857792499940842,29.14436459983699,29.144539600005373,29.15628549992107,29.15628549992107,29.447964399820194,29.447964399820194,29.44312009983696,29.149332899833098,29.149332899833098,,,,,,,,,,,,,207799,001,2025-03-13_01h49.20.650,Estimulo_ICE,2024.2.4,143.64452040259528,2025-03-13 01h49.23.904732 -0300,
Estimulo_1,15,15,0,2.89999999999999,-2.89999999999999,2.89999999999999,-2.89999999999999,2.2,-2.2,-2.2,2.2,0,1,1,0,0,15,15,15,,,,,,,,,,,,,,,,,,,,,,,,,,,,,29.447964399820194,,,,29.443386199884117,29.461858300026506,29.461858300026506,29.75030820001848,29.750483399955556,29.76214240002446,29.76214240002446,30.053565399954095,30.053565399954095,30.048566199839115,29.755402199923992,29.755402199923992,,,,,,,,,,,,,207799,001,2025-03-13_01h49.20.650,Estimulo_ICE,2024.2.4,143.64452040259528,2025-03-13 01h49.23.904732 -0300,
Estimulo_1,16,16,0,2.79999999999999,-2.79999999999999,2.79999999999999,-2.79999999999999,2.2,-2.2,-2.2,2.2,0,1,1,0,0,16,16,16,,,,,,,,,,,,,,,,,,,,,,,,,,,,,30.053565399954095,,,,30.048834800021723,30.060346599901095,30.060346599901095,30.347085200017318,30.347310999874026,30.358961699996144,30.358961699996144,30.65077649988234,30.65077649988234,30.645879999967292,30.352160800015554,30.352160800015554,,,,,,,,,,,,,207799,001,2025-03-13_01h49.20.650,Estimulo_ICE,2024.2.4,143.64452040259528,2025-03-13 01h49.23.904732 -0300,
Estimulo_1,17,17,0,2.69999999999999,-2.69999999999999,2.69999999999999,-2.69999999999999,2.2,-2.2,-2.2,2.2,0,1,1,0,0,17,17,17,,,,,,,,,,,,,,,,,,,,,,,,,,,,,30.65077649988234,,,,30.646207799902186,30.657725299941376,30.657725299941376,30.944377399981022,30.944552699802443,30.956284099956974,30.956284099956974,31.24785009981133,31.24785009981133,31.243138100020587,30.949340799823403,30.949340799823403,,,,,,,,,,,,,207799,001,2025-03-13_01h49.20.650,Estimulo_ICE,2024.2.4,143.64452040259528,2025-03-13 01h49.23.904732 -0300,
Estimulo_1,18,18,0,2.59999999999999,-2.59999999999999,2.59999999999999,-2.59999999999999,2.2,-2.2,-2.2,2.2,0,1,1,0,0,18,18,18,,,,,,,,,,,,,,,,,,,,,,,,,,,,,31.24785009981133,,,,31.24347579991445,31.26194559992291,31.26194559992291,31.548469299916178,31.54864379996434,31.560358199989423,31.560358199989423,31.853785099927336,31.853785099927336,31.848799099912867,31.553608399815857,31.553608399815857,,,,,,,,,,,,,207799,001,2025-03-13_01h49.20.650,Estimulo_ICE,2024.2.4,143.64452040259528,2025-03-13 01h49.23.904732 -0300,
Estimulo_1,19,19,0,2.49999999999999,-2.49999999999999,2.49999999999999,-2.49999999999999,2.2,-2.2,-2.2,2.2,0,1,1,0,0,19,19,19,,,,,,,,,,,,,,,,,,,,,,,,,,,,,31.853785099927336,,,,31.849069299874827,31.861009699990973,31.861009699990973,32.14702139981091,32.14719739998691,32.15883579989895,32.15883579989895,32.450515599921346,32.450515599921346,32.445350099820644,32.15189739991911,32.15189739991911,,,,,,,,,,,,,207799,001,2025-03-13_01h49.20.650,Estimulo_ICE,2024.2.4,143.64452040259528,2025-03-13 01h49.23.904732 -0300,
Estimulo_1,20,20,0,2.39999999999999,-2.39999999999999,2.39999999999999,-2.39999999999999,2.2,-2.2,-2.2,2.2,0,1,1,0,0,20,20,20,,,,,,,,,,,,,,,,,,,,,,,,,,,,,32.450515599921346,,,,32.44563129986636,32.457462899852544,32.457462899852544,32.74413629993796,32.744311299873516,32.75609559984878,32.75609559984878,33.04774639988318,33.04774639988318,33.04300299985334,32.749155399855226,32.749155399855226,,,,,,,,,,,,,207799,001,2025-03-13_01h49.20.650,Estimulo_ICE,2024.2.4,143.64452040259528,2025-03-13 01h49.23.904732 -0300,
Estimulo_1,21,21,0,2.29999999999999,-2.29999999999999,2.29999999999999,-2.29999999999999,2.2,-2.2,-2.2,2.2,0,1,1,0,0,21,21,21,,,,,,,,,,,,,,,,,,,,,,,,,,,,,33.04774639988318,,,,33.04326900001615,33.06158079998568,33.06158079998568,33.34843979985453,33.348614800022915,33.36028039990924,33.36028039990924,33.651893799891695,33.651893799891695,33.646925299894065,33.35336339985952,33.35336339985952,,,,,,,,,,,,,207799,001,2025-03-13_01h49.20.650,Estimulo_ICE,2024.2.4,143.64452040259528,2025-03-13 01h49.23.904732 -0300,
Estimulo_1,22,22,0,2.19999999999999,-2.19999999999999,2.19999999999999,-2.19999999999999,2.2,-2.2,-2.2,2.2,0,1,1,0,0,22,22,22,,,,,,,,,,,,,,,,,,,,,,,,,,,,,33.651893799891695,,,,33.64719539997168,33.6588873998262,33.6588873998262,33.94812149996869,33.9482983998023,33.96002419991419,33.96002419991419,34.250744899967685,34.250744899967685,34.245724299922585,33.952444499824196,33.952444499824196,,,,,,,,,,,,,207799,001,2025-03-13_01h49.20.650,Estimulo_ICE,2024.2.4,143.64452040259528,2025-03-13 01h49.23.904732 -0300,
Estimulo_1,23,23,0,2.09999999999999,-2.09999999999999,2.09999999999999,-2.09999999999999,2.2,-2.2,-2.2,2.2,0,1,1,0,0,23,23,23,,,,,,,,,,,,,,,,,,,,,,,,,,,,,34.250744899967685,,,,34.24600149993785,34.25792459980585,34.25792459980585,34.543875799980015,34.544057299848646,34.56277009984478,34.56277009984478,34.8544637998566,34.8544637998566,34.849414999829605,34.54876219993457,34.54876219993457,,,,,,,,,,,,,207799,001,2025-03-13_01h49.20.650,Estimulo_ICE,2024.2.4,143.64452040259528,2025-03-13 01h49.23.904732 -0300,
Estimulo_1,24,24,0,1.99999999999999,-1.99999999999999,1.99999999999999,-1.99999999999999,2.2,-2.2,-2.2,2.2,0,1,1,0,0,24,24,24,,,,,,,,,,,,,,,,,,,,,,,,,,,,,34.8544637998566,,,,34.84968500002287,34.86139449989423,34.86139449989423,35.147888199891895,35.148073999909684,35.160040399990976,35.160040399990976,35.45159119996242,35.45159119996242,35.44705359986983,35.15283539984375,35.15283539984375,,,,,,,,,,,,,207799,001,2025-03-13_01h49.20.650,Estimulo_ICE,2024.2.4,143.64452040259528,2025-03-13 01h49.23.904732 -0300,
Estimulo_1,25,25,0,1.89999999999999,-1.89999999999999,1.89999999999999,-1.89999999999999,2.2,-2.2,-2.2,2.2,0,1,1,0,0,25,25,25,,,,,,,,,,,,,,,,,,,,,,,,,,,,,35.45159119996242,,,,35.4473747999873,35.45854589994997,35.45854589994997,35.74532649992034,35.74550189985894,35.75721829989925,35.75721829989925,36.0489180998411,36.0489180998411,36.043838299810886,35.750280999811366,35.750280999811366,,,,,,,,,,,,,207799,001,2025-03-13_01h49.20.650,Estimulo_ICE,2024.2.4,143.64452040259528,2025-03-13 01h49.23.904732 -0300,
Estimulo_1,26,26,0,1.79999999999999,-1.79999999999999,1.79999999999999,-1.79999999999999,2.2,-2.2,-2.2,2.2,0,1,1,0,0,26,26,26,,,,,,,,,,,,,,,,,,,,,,,,,,,,,36.0489180998411,,,,36.04410669999197,36.06284000002779,36.06284000002779,36.35139989992604,36.35158999986015,36.38611309998669,36.38611309998669,,,36.67187520000152,36.38611309998669,36.38611309998669,,,,,,,,,,,,,207799,001,2025-03-13_01h49.20.650,Estimulo_ICE,2024.2.4,143.64452040259528,2025-03-13 01h49.23.904732 -0300,
Estimulo_1,27,27,0,1.69999999999999,-1.69999999999999,1.69999999999999,-1.69999999999999,2.2,-2.2,-2.2,2.2,0,1,1,0,0,27,27,27,,,,,,,,,,,,,,,,,,,,,,,,,,,,,36.68097609980032,,,,36.672158899949864,36.68097609980032,36.68097609980032,36.97061209985986,36.970786599908024,36.97368299984373,36.97368299984373,37.271317299921066,37.271317299921066,37.262593999970704,,,,,,,,,,,,,,,207799,001,2025-03-13_01h49.20.650,Estimulo_ICE,2024.2.4,143.64452040259528,2025-03-13 01h49.23.904732 -0300,
Estimulo_1,28,28,0,1.59999999999999,-1.59999999999999,1.59999999999999,-1.59999999999999,2.2,-2.2,-2.2,2.2,0,1,1,0,0,28,28,28,,,,,,,,,,,,,,,,,,,,,,,,,,,,,37.271317299921066,,,,37.262866199947894,37.271317299921066,37.271317299921066,37.55861940002069,37.55879699997604,37.563695800025016,37.563695800025016,37.85527089983225,37.85527089983225,37.85072649992071,37.563695800025016,37.563695800025016,,,,,,,,,,,,,207799,001,2025-03-13_01h49.20.650,Estimulo_ICE,2024.2.4,143.64452040259528,2025-03-13 01h49.23.904732 -0300,
Estimulo_1,29,29,0,1.49999999999999,-1.49999999999998,1.49999999999999,-1.49999999999998,2.2,-2.2,-2.2,2.2,0,1,1,0,0,29,29,29,,,,,,,,,,,,,,,,,,,,,,,,,,,,,37.85527089983225,,,,37.85099419998005,37.862306399969384,37.862306399969384,38.148936999961734,38.1491548998747,38.16085059987381,38.16085059987381,38.4528369999025,38.4528369999025,38.44792209984735,38.153920099837705,38.153920099837705,,,,,,,,,,,,,207799,001,2025-03-13_01h49.20.650,Estimulo_ICE,2024.2.4,143.64452040259528,2025-03-13 01h49.23.904732 -0300,
Estimulo_1,30,30,0,1.39999999999999,-1.39999999999998,1.39999999999999,-1.39999999999998,2.2,-2.2,-2.2,2.2,0,1,1,0,0,30,30,30,,,,,,,,,,,,,,,,,,,,,,,,,,,,,38.4528369999025,,,,38.44819299993105,38.459630499826744,38.459630499826744,38.74643509997986,38.74661619984545,38.75845670001581,38.75845670001581,39.05000159982592,39.05000159982592,39.045166600029916,38.75126529997215,38.75126529997215,,,,,,,,,,,,,207799,001,2025-03-13_01h49.20.650,Estimulo_ICE,2024.2.4,143.64452040259528,2025-03-13 01h49.23.904732 -0300,
Estimulo_1,31,31,0,1.29999999999999,-1.29999999999998,1.29999999999999,-1.29999999999998,2.2,-2.2,-2.2,2.2,0,1,1,0,0,31,31,31,,,,,,,,,,,,,,,,,,,,,,,,,,,,,39.05000159982592,,,,39.04543549986556,39.057115299860016,39.057115299860016,39.34557030000724,39.345746899954975,39.357107299845666,39.357107299845666,39.648180899908766,39.648180899908766,39.643391399877146,39.35056159994565,39.35056159994565,,,,,,,,,,,,,207799,001,2025-03-13_01h49.20.650,Estimulo_ICE,2024.2.4,143.64452040259528,2025-03-13 01h49.23.904732 -0300,
Estimulo_1,32,32,0,1.19999999999999,-1.19999999999998,1.19999999999999,-1.19999999999998,2.2,-2.2,-2.2,2.2,0,1,1,0,0,32,32,32,,,,,,,,,,,,,,,,,,,,,,,,,,,,,39.648180899908766,,,,39.64366879989393,39.66218179999851,39.66218179999851,39.94891099981032,39.94908699998632,39.96088259993121,39.96088259993121,40.252642899984494,40.252642899984494,40.24757170001976,39.95384789980017,39.95384789980017,,,,,,,,,,,,,207799,001,2025-03-13_01h49.20.650,Estimulo_ICE,2024.2.4,143.64452040259528,2025-03-13 01h49.23.904732 -0300,
Estimulo_1,33,33,0,1.09999999999999,-1.09999999999998,1.09999999999999,-1.09999999999998,2.2,-2.2,-2.2,2.2,0,1,1,0,0,33,33,33,,,,,,,,,,,,,,,,,,,,,,,,,,,,,40.252642899984494,,,,40.24785579997115,40.259535799967125,40.259535799967125,40.54627739987336,40.54645269992761,40.55814029998146,40.55814029998146,40.89078799984418,40.89078799984418,40.844764799810946,40.551207799930125,40.551207799930125,,,,,,,,,,,,,207799,001,2025-03-13_01h49.20.650,Estimulo_ICE,2024.2.4,143.64452040259528,2025-03-13 01h49.23.904732 -0300,
Estimulo_1,0,0,0,4.4,-4.4,4.4,-4.4,2.2,-2.2,-2.2,2.2,0,1,1,0,,,,,,,,,,,,,,,,,0,0,0,0,,,,,,,,,,,,,40.89078799984418,,,,,,,,,,,,,,,,40.88216519984417,40.89078799984418,40.89078799984418,41.15709669981152,41.157305100001395,41.16219179984182,41.16219179984182,41.45555499987677,41.45555499987677,41.4506082998123,,,207799,001,2025-03-13_01h49.20.650,Estimulo_ICE,2024.2.4,143.64452040259528,2025-03-13 01h49.23.904732 -0300,
Estimulo_1,1,1,0,4.3,-4.3,4.3,-4.3,2.2,-2.2,-2.2,2.2,0,1,1,0,,,,,,,,,,,,,,,,,0,1,1,1,,,,,,,,,,,,,41.45555499987677,,,,,,,,,,,,,,,,41.45087609998882,41.46252159983851,41.46252159983851,41.74867389979772,41.74884829996154,41.760664499830455,41.760664499830455,42.05218270001933,42.05218270001933,42.04720659996383,41.753531999886036,41.753531999886036,207799,001,2025-03-13_01h49.20.650,Estimulo_ICE,2024.2.4,143.64452040259528,2025-03-13 01h49.23.904732 -0300,
Estimulo_1,2,2,0,4.2,-4.2,4.2,-4.2,2.2,-2.2,-2.2,2.2,0,1,1,0,,,,,,,,,,,,,,,,,0,2,2,2,,,,,,,,,,,,,42.05218270001933,,,,,,,,,,,,,,,,42.04747849982232,42.059191699838266,42.059191699838266,42.34605459985323,42.3462331998162,42.35789390001446,42.35789390001446,42.64953519986011,42.64953519986011,42.64453129982576,42.35096880001947,42.35096880001947,207799,001,2025-03-13_01h49.20.650,Estimulo_ICE,2024.2.4,143.64452040259528,2025-03-13 01h49.23.904732 -0300,
Estimulo_1,3,3,0,4.1,-4.1,4.1,-4.1,2.2,-2.2,-2.2,2.2,0,1,1,0,,,,,,,,,,,,,,,,,0,3,3,3,,,,,,,,,,,,,42.64953519986011,,,,,,,,,,,,,,,,42.644804699812084,42.65649769990705,42.65649769990705,42.94359879987314,42.94377709995024,42.962076999945566,42.962076999945566,43.25378209981136,43.25378209981136,43.248850599862635,42.94844499998726,42.94844499998726,207799,001,2025-03-13_01h49.20.650,Estimulo_ICE,2024.2.4,143.64452040259528,2025-03-13 01h49.23.904732 -0300,
Estimulo_1,4,4,0,4,-4,4,-4,2.2,-2.2,-2.2,2.2,0,1,1,0,,,,,,,,,,,,,,,,,0,4,4,4,,,,,,,,,,,,,43.25378209981136,,,,,,,,,,,,,,,,43.24911889992654,43.26070999982767,43.26070999982767,43.54914279980585,43.54931699996814,43.56104950001463,43.56104950001463,43.85200980002992,43.85200980002992,43.847131700022146,43.553962299833074,43.553962299833074,207799,001,2025-03-13_01h49.20.650,Estimulo_ICE,2024.2.4,143.64452040259528,2025-03-13 01h49.23.904732 -0300,
Estimulo_1,5,5,0,3.9,-3.9,3.9,-3.9,2.2,-2.2,-2.2,2.2,0,1,1,0,,,,,,,,,,,,,,,,,0,5,5,5,,,,,,,,,,,,,43.85200980002992,,,,,,,,,,,,,,,,43.84739929996431,43.859024700010195,43.859024700010195,44.14559490000829,44.14577709999867,44.157655499875546,44.157655499875546,44.4491586999502,44.4491586999502,44.444276300026104,44.15048859990202,44.15048859990202,207799,001,2025-03-13_01h49.20.650,Estimulo_ICE,2024.2.4,143.64452040259528,2025-03-13 01h49.23.904732 -0300,
Estimulo_1,6,6,0,3.8,-3.8,3.8,-3.8,2.2,-2.2,-2.2,2.2,0,1,1,0,,,,,,,,,,,,,,,,,0,6,6,6,,,,,,,,,,,,,44.4491586999502,,,,,,,,,,,,,,,,44.44461159990169,44.45613109995611,44.45613109995611,44.74268799996935,44.74287760001607,44.761700899805874,44.761700899805874,45.053339699981734,45.053339699981734,45.04851829982363,44.74788859998807,44.74788859998807,207799,001,2025-03-13_01h49.20.650,Estimulo_ICE,2024.2.4,143.64452040259528,2025-03-13 01h49.23.904732 -0300,
Estimulo_1,7,7,0,3.7,-3.7,3.7,-3.7,2.2,-2.2,-2.2,2.2,0,1,1,0,,,,,,,,,,,,,,,,,0,7,7,7,,,,,,,,,,,,,45.053339699981734,,,,,,,,,,,,,,,,45.04879339993931,45.06028879992664,45.06028879992664,45.34717049985193,45.347353799967095,45.35901789995842,45.35901789995842,45.652486599981785,45.652486599981785,45.647876099916175,45.3521070999559,45.3521070999559,207799,001,2025-03-13_01h49.20.650,Estimulo_ICE,2024.2.4,143.64452040259528,2025-03-13 01h49.23.904732 -0300,
Estimulo_1,8,8,0,3.6,-3.6,3.6,-3.6,2.2,-2.2,-2.2,2.2,0,1,1,0,,,,,,,,,,,,,,,,,0,8,8,8,,,,,,,,,,,,,45.652486599981785,,,,,,,,,,,,,,,,45.64819239987992,45.65956309996545,45.65956309996545,45.94589959993027,45.946089499862865,45.95786389987916,45.95786389987916,46.24901459994726,46.24901459994726,46.24395169992931,45.95085749984719,45.95085749984719,207799,001,2025-03-13_01h49.20.650,Estimulo_ICE,2024.2.4,143.64452040259528,2025-03-13 01h49.23.904732 -0300,
Estimulo_1,9,9,0,3.5,-3.5,3.5,-3.5,2.2,-2.2,-2.2,2.2,0,1,1,0,,,,,,,,,,,,,,,,,0,9,9,9,,,,,,,,,,,,,46.24901459994726,,,,,,,,,,,,,,,,46.24423409998417,46.25599169987254,46.25599169987254,46.54270749981515,46.54288409999572,46.56150169996545,46.56150169996545,46.85307169985026,46.85307169985026,46.84820529981516,46.54762710002251,46.54762710002251,207799,001,2025-03-13_01h49.20.650,Estimulo_ICE,2024.2.4,143.64452040259528,2025-03-13 01h49.23.904732 -0300,
Estimulo_1,10,10,0,3.39999999999999,-3.39999999999999,3.39999999999999,-3.39999999999999,2.2,-2.2,-2.2,2.2,0,1,1,0,,,,,,,,,,,,,,,,,0,10,10,10,,,,,,,,,,,,,46.85307169985026,,,,,,,,,,,,,,,,46.84847759990953,46.860028699971735,46.860028699971735,47.146919899852946,47.14709659991786,47.158624899806455,47.158624899806455,47.450285099912435,47.450285099912435,47.44530829996802,47.15166929992847,47.15166929992847,207799,001,2025-03-13_01h49.20.650,Estimulo_ICE,2024.2.4,143.64452040259528,2025-03-13 01h49.23.904732 -0300,
Estimulo_1,11,11,0,3.29999999999999,-3.29999999999999,3.29999999999999,-3.29999999999999,2.2,-2.2,-2.2,2.2,0,1,1,0,,,,,,,,,,,,,,,,,0,11,11,11,,,,,,,,,,,,,47.450285099912435,,,,,,,,,,,,,,,,47.445628999965265,47.457416699966416,47.457416699966416,47.744124399963766,47.744296699995175,47.756061899941415,47.756061899941415,48.04948879987933,48.04948879987933,48.04433549987152,47.74906999990344,47.74906999990344,207799,001,2025-03-13_01h49.20.650,Estimulo_ICE,2024.2.4,143.64452040259528,2025-03-13 01h49.23.904732 -0300,
Estimulo_1,12,12,0,3.19999999999999,-3.19999999999999,3.19999999999999,-3.19999999999999,2.2,-2.2,-2.2,2.2,0,1,1,0,,,,,,,,,,,,,,,,,0,12,12,12,,,,,,,,,,,,,48.04948879987933,,,,,,,,,,,,,,,,48.04461569990963,48.05630619986914,48.05630619986914,48.34298189985566,48.34317769994959,48.361506699817255,48.361506699817255,48.65312969987281,48.65312969987281,48.648094199830666,48.34748739982024,48.34748739982024,207799,001,2025-03-13_01h49.20.650,Estimulo_ICE,2024.2.4,143.64452040259528,2025-03-13 01h49.23.904732 -0300,
Estimulo_1,13,13,0,3.09999999999999,-3.09999999999999,3.09999999999999,-3.09999999999999,2.2,-2.2,-2.2,2.2,0,1,1,0,,,,,,,,,,,,,,,,,0,13,13,13,,,,,,,,,,,,,48.65312969987281,,,,,,,,,,,,,,,,48.6483670999296,48.660081199835986,48.660081199835986,48.94666979997419,48.94685729988851,48.95857599982992,48.95857599982992,49.25022929999977,49.25022929999977,49.245334199862555,48.95165969990194,48.95165969990194,207799,001,2025-03-13_01h49.20.650,Estimulo_ICE,2024.2.4,143.64452040259528,2025-03-13 01h49.23.904732 -0300,
Estimulo_1,14,14,0,2.99999999999999,-2.99999999999999,2.99999999999999,-2.99999999999999,2.2,-2.2,-2.2,2.2,0,1,1,0,,,,,,,,,,,,,,,,,0,14,14,14,,,,,,,,,,,,,49.25022929999977,,,,,,,,,,,,,,,,49.2456059998367,49.25733029982075,49.25733029982075,49.54400420002639,49.54419089993462,49.56277629989199,49.56277629989199,49.85445909993723,49.85445909993723,49.84968729992397,49.548883999930695,49.548883999930695,207799,001,2025-03-13_01h49.20.650,Estimulo_ICE,2024.2.4,143.64452040259528,2025-03-13 01h49.23.904732 -0300,
Estimulo_1,15,15,0,2.89999999999999,-2.89999999999999,2.89999999999999,-2.89999999999999,2.2,-2.2,-2.2,2.2,0,1,1,0,,,,,,,,,,,,,,,,,0,15,15,15,,,,,,,,,,,,,49.85445909993723,,,,,,,,,,,,,,,,49.849961899919435,49.86145569989458,49.86145569989458,50.150787899969146,50.15096449991688,50.16177919995971,50.16177919995971,50.452792200027034,50.452792200027034,50.447541299974546,50.155231799930334,50.155231799930334,207799,001,2025-03-13_01h49.20.650,Estimulo_ICE,2024.2.4,143.64452040259528,2025-03-13 01h49.23.904732 -0300,
Estimulo_1,16,16,0,2.79999999999999,-2.79999999999999,2.79999999999999,-2.79999999999999,2.2,-2.2,-2.2,2.2,0,1,1,0,,,,,,,,,,,,,,,,,0,16,16,16,,,,,,,,,,,,,50.452792200027034,,,,,,,,,,,,,,,,50.44781219982542,50.45985749992542,50.45985749992542,50.74643539986573,50.74664179980755,50.75846039992757,50.75846039992757,51.05009159981273,51.05009159981273,51.04498609993607,50.75136699993163,50.75136699993163,207799,001,2025-03-13_01h49.20.650,Estimulo_ICE,2024.2.4,143.64452040259528,2025-03-13 01h49.23.904732 -0300,
Estimulo_1,17,17,0,2.69999999999999,-2.69999999999999,2.69999999999999,-2.69999999999999,2.2,-2.2,-2.2,2.2,0,1,1,0,,,,,,,,,,,,,,,,,0,17,17,17,,,,,,,,,,,,,51.05009159981273,,,,,,,,,,,,,,,,51.0452705998905,51.05698069999926,51.05698069999926,51.34365089982748,51.343827799893916,51.36266899993643,51.36266899993643,51.654290499864146,51.654290499864146,51.649126699892804,51.348765899892896,51.348765899892896,207799,001,2025-03-13_01h49.20.650,Estimulo_ICE,2024.2.4,143.64452040259528,2025-03-13 01h49.23.904732 -0300,
Estimulo_1,18,18,0,2.59999999999999,-2.59999999999999,2.59999999999999,-2.59999999999999,2.2,-2.2,-2.2,2.2,0,1,1,0,,,,,,,,,,,,,,,,,0,18,18,18,,,,,,,,,,,,,51.654290499864146,,,,,,,,,,,,,,,,51.64941419987008,51.661104899831116,51.661104899831116,51.94792679999955,51.94810349983163,51.95994339999743,51.95994339999743,52.25365490000695,52.25365490000695,52.2479703000281,51.95278519997373,51.95278519997373,207799,001,2025-03-13_01h49.20.650,Estimulo_ICE,2024.2.4,143.64452040259528,2025-03-13 01h49.23.904732 -0300,
Estimulo_1,19,19,0,2.49999999999999,-2.49999999999999,2.49999999999999,-2.49999999999999,2.2,-2.2,-2.2,2.2,0,1,1,0,,,,,,,,,,,,,,,,,0,19,19,19,,,,,,,,,,,,,52.25365490000695,,,,,,,,,,,,,,,,52.24824099987745,52.2602325999178,52.2602325999178,52.54679559986107,52.54697149991989,52.55889069987461,52.55889069987461,52.8498531000223,52.8498531000223,52.844880499877036,52.551730499835685,52.551730499835685,207799,001,2025-03-13_01h49.20.650,Estimulo_ICE,2024.2.4,143.64452040259528,2025-03-13 01h49.23.904732 -0300,
Estimulo_1,20,20,0,2.39999999999999,-2.39999999999999,2.39999999999999,-2.39999999999999,2.2,-2.2,-2.2,2.2,0,1,1,0,,,,,,,,,,,,,,,,,0,20,20,20,,,,,,,,,,,,,52.8498531000223,,,,,,,,,,,,,,,,52.84515079995617,52.856719199800864,52.856719199800864,53.14368289988488,53.14386929990724,53.162432899931446,53.162432899931446,53.453919699881226,53.453919699881226,53.44918409991078,53.14838069980033,53.14838069980033,207799,001,2025-03-13_01h49.20.650,Estimulo_ICE,2024.2.4,143.64452040259528,2025-03-13 01h49.23.904732 -0300,
Estimulo_1,21,21,0,2.29999999999999,-2.29999999999999,2.29999999999999,-2.29999999999999,2.2,-2.2,-2.2,2.2,0,1,1,0,,,,,,,,,,,,,,,,,0,21,21,21,,,,,,,,,,,,,53.453919699881226,,,,,,,,,,,,,,,,53.44946889998391,53.46087109996006,53.46087109996006,53.74768339982256,53.747866599820554,53.75960059999488,53.75960059999488,54.051066800020635,54.051066800020635,54.04621399985626,53.75254529993981,53.75254529993981,207799,001,2025-03-13_01h49.20.650,Estimulo_ICE,2024.2.4,143.64452040259528,2025-03-13 01h49.23.904732 -0300,
Estimulo_1,22,22,0,2.19999999999999,-2.19999999999999,2.19999999999999,-2.19999999999999,2.2,-2.2,-2.2,2.2,0,1,1,0,,,,,,,,,,,,,,,,,0,22,22,22,,,,,,,,,,,,,54.051066800020635,,,,,,,,,,,,,,,,54.04648619983345,54.058278899872676,54.058278899872676,54.344791299896315,54.344975899904966,54.35675909998827,54.35675909998827,54.65023449994624,54.65023449994624,54.645157099934295,54.34988839994185,54.34988839994185,207799,001,2025-03-13_01h49.20.650,Estimulo_ICE,2024.2.4,143.64452040259528,2025-03-13 01h49.23.904732 -0300,
Estimulo_1,23,23,0,2.09999999999999,-2.09999999999999,2.09999999999999,-2.09999999999999,2.2,-2.2,-2.2,2.2,0,1,1,0,,,,,,,,,,,,,,,,,0,23,23,23,,,,,,,,,,,,,54.65023449994624,,,,,,,,,,,,,,,,54.64544089999981,54.65726129990071,54.65726129990071,54.94315279996954,54.9433295999188,54.96206339984201,54.96206339984201,55.25384289980866,55.25384289980866,55.24881869996898,54.94816799997352,54.94816799997352,207799,001,2025-03-13_01h49.20.650,Estimulo_ICE,2024.2.4,143.64452040259528,2025-03-13 01h49.23.904732 -0300,
Estimulo_1,24,24,0,1.99999999999999,-1.99999999999999,1.99999999999999,-1.99999999999999,2.2,-2.2,-2.2,2.2,0,1,1,0,,,,,,,,,,,,,,,,,0,24,24,24,,,,,,,,,,,,,55.25384289980866,,,,,,,,,,,,,,,,55.24908949993551,55.26076369988732,55.26076369988732,55.547393599990755,55.54757079994306,55.55939930002205,55.55939930002205,55.85092769982293,55.85092769982293,55.84586389991455,55.55252079991624,55.55252079991624,207799,001,2025-03-13_01h49.20.650,Estimulo_ICE,2024.2.4,143.64452040259528,2025-03-13 01h49.23.904732 -0300,
Estimulo_1,25,25,0,1.89999999999999,-1.89999999999999,1.89999999999999,-1.89999999999999,2.2,-2.2,-2.2,2.2,0,1,1,0,,,,,,,,,,,,,,,,,0,25,25,25,,,,,,,,,,,,,55.85092769982293,,,,,,,,,,,,,,,,55.846133899874985,55.85807710001245,55.85807710001245,56.144625399960205,56.14484029985033,56.156591799808666,56.156591799808666,56.448275099974126,56.448275099974126,56.44325289991684,56.1496790999081,56.1496790999081,207799,001,2025-03-13_01h49.20.650,Estimulo_ICE,2024.2.4,143.64452040259528,2025-03-13 01h49.23.904732 -0300,
Estimulo_1,26,26,0,1.79999999999999,-1.79999999999999,1.79999999999999,-1.79999999999999,2.2,-2.2,-2.2,2.2,0,1,1,0,,,,,,,,,,,,,,,,,0,26,26,26,,,,,,,,,,,,,56.448275099974126,,,,,,,,,,,,,,,,56.44353439984843,56.46207549981773,56.46207549981773,56.75062009994872,56.75081070000306,56.76245199982077,56.76245199982077,57.05430660001002,57.05430660001002,57.04918199987151,56.755452199839056,56.755452199839056,207799,001,2025-03-13_01h49.20.650,Estimulo_ICE,2024.2.4,143.64452040259528,2025-03-13 01h49.23.904732 -0300,
Estimulo_1,27,27,0,1.69999999999999,-1.69999999999999,1.69999999999999,-1.69999999999999,2.2,-2.2,-2.2,2.2,0,1,1,0,,,,,,,,,,,,,,,,,0,27,27,27,,,,,,,,,,,,,57.05430660001002,,,,,,,,,,,,,,,,57.049456499982625,57.060826499946415,57.060826499946415,57.34709359984845,57.347268800018355,57.359132800018415,57.359132800018415,57.65081449993886,57.65081449993886,57.645651999861,57.35212659998797,57.35212659998797,207799,001,2025-03-13_01h49.20.650,Estimulo_ICE,2024.2.4,143.64452040259528,2025-03-13 01h49.23.904732 -0300,
Estimulo_1,28,28,0,1.59999999999999,-1.59999999999999,1.59999999999999,-1.59999999999999,2.2,-2.2,-2.2,2.2,0,1,1,0,,,,,,,,,,,,,,,,,0,28,28,28,,,,,,,,,,,,,57.65081449993886,,,,,,,,,,,,,,,,57.645929999882355,57.65776459989138,57.65776459989138,57.94455539993942,57.944732500007376,57.956398400012404,57.956398400012404,58.24790590000339,58.24790590000339,58.24340169993229,57.94924189988524,57.94924189988524,207799,001,2025-03-13_01h49.20.650,Estimulo_ICE,2024.2.4,143.64452040259528,2025-03-13 01h49.23.904732 -0300,
Estimulo_1,29,29,0,1.49999999999999,-1.49999999999998,1.49999999999999,-1.49999999999998,2.2,-2.2,-2.2,2.2,0,1,1,0,,,,,,,,,,,,,,,,,0,29,29,29,,,,,,,,,,,,,58.24790590000339,,,,,,,,,,,,,,,,58.24367160000838,58.261713800020516,58.261713800020516,58.54861619998701,58.54879289981909,58.56037770002149,58.56037770002149,58.85210609994829,58.85210609994829,58.84708719979972,58.553498700028285,58.553498700028285,207799,001,2025-03-13_01h49.20.650,Estimulo_ICE,2024.2.4,143.64452040259528,2025-03-13 01h49.23.904732 -0300,
Estimulo_1,30,30,0,1.39999999999999,-1.39999999999998,1.39999999999999,-1.39999999999998,2.2,-2.2,-2.2,2.2,0,1,1,0,,,,,,,,,,,,,,,,,0,30,30,30,,,,,,,,,,,,,58.85210609994829,,,,,,,,,,,,,,,,58.84741279995069,58.85913349990733,58.85913349990733,59.14752609981224,59.14770289999433,59.159356700023636,59.159356700023636,59.450535599840805,59.450535599840805,59.445473599946126,59.15261369990185,59.15261369990185,207799,001,2025-03-13_01h49.20.650,Estimulo_ICE,2024.2.4,143.64452040259528,2025-03-13 01h49.23.904732 -0300,
Estimulo_1,31,31,0,1.29999999999999,-1.29999999999998,1.29999999999999,-1.29999999999998,2.2,-2.2,-2.2,2.2,0,1,1,0,,,,,,,,,,,,,,,,,0,31,31,31,,,,,,,,,,,,,59.450535599840805,,,,,,,,,,,,,,,,59.44574459991418,59.45748689980246,59.45748689980246,59.74404429993592,59.74422749993391,59.76291469996795,59.76291469996795,60.05469050002284,60.05469050002284,60.049708699807525,59.748955899849534,59.748955899849534,207799,001,2025-03-13_01h49.20.650,Estimulo_ICE,2024.2.4,143.64452040259528,2025-03-13 01h49.23.904732 -0300,
Estimulo_1,32,32,0,1.19999999999999,-1.19999999999998,1.19999999999999,-1.19999999999998,2.2,-2.2,-2.2,2.2,0,1,1,0,,,,,,,,,,,,,,,,,0,32,32,32,,,,,,,,,,,,,60.05469050002284,,,,,,,,,,,,,,,,60.04997910000384,60.061697399942204,60.061697399942204,60.348594199866056,60.348769299918786,60.360244599869475,60.360244599869475,60.65192299988121,60.65192299988121,60.646882499800995,60.35334529983811,60.35334529983811,207799,001,2025-03-13_01h49.20.650,Estimulo_ICE,2024.2.4,143.64452040259528,2025-03-13 01h49.23.904732 -0300,
Estimulo_1,33,33,0,1.09999999999999,-1.09999999999998,1.09999999999999,-1.09999999999998,2.2,-2.2,-2.2,2.2,0,1,1,0,,,,,,,,,,,,,,,,,0,33,33,33,,,,,,,,,,,,,60.65192299988121,,,,,,,,,,,,,,,,60.647150999866426,60.65890819998458,60.65890819998458,60.9455320998095,60.945766299963,60.95749489986338,60.95749489986338,61.29800660000183,61.29800660000183,61.24583679996431,60.95044879987836,60.95044879987836,207799,001,2025-03-13_01h49.20.650,Estimulo_ICE,2024.2.4,143.64452040259528,2025-03-13 01h49.23.904732 -0300,
Estimulo_1,1,1,0,,,,,,,,,0,1,1,0,,,,,,,,,,,,,,,,,,,,,,,,,,,,,,,,,,,,,,,,,,,,,,,,,,,,,,,,,,,,,207799,001,2025-03-13_01h49.20.650,Estimulo_ICE,2024.2.4,143.64452040259528,2025-03-13 01h49.23.904732 -0300,
Estimulo_2,0,0,0,1.1,-1.1,1.1,-1.1,2.2,-2.2,-2.2,2.2,0,2,2,2,,,,,0,0,0,0,,,,,,,,,,,,,,,,,,,,,,,,,61.29800660000183,,61.27557899989188,61.275861899834126,61.29199939989485,61.29800660000183,61.29800660000183,61.57888769987039,61.57906619994901,61.58405109983869,61.58405109983869,61.87514999997802,61.87514999997802,61.870532899862155,,,,,,,,,,,,,,,207799,001,2025-03-13_01h49.20.650,Estimulo_ICE,2024.2.4,143.64452040259528,2025-03-13 01h49.23.904732 -0300,
Estimulo_2,1,1,0,1.2,-1.2,1.2,-1.2,2.2,-2.2,-2.2,2.2,0,2,2,2,,,,,0,1,1,1,,,,,,,,,,,,,,,,,,,,,,,,,61.87514999997802,,,,61.8708093999885,61.87514999997802,61.87514999997802,62.16191629995592,62.16209220001474,62.16699109994806,62.16699109994806,62.45849230000749,62.45849230000749,62.45360070001334,62.16699109994806,62.16699109994806,,,,,,,,,,,,,207799,001,2025-03-13_01h49.20.650,Estimulo_ICE,2024.2.4,143.64452040259528,2025-03-13 01h49.23.904732 -0300,
Estimulo_2,2,2,0,1.3,-1.3,1.3,-1.3,2.2,-2.2,-2.2,2.2,0,2,2,2,,,,,0,2,2,2,,,,,,,,,,,,,,,,,,,,,,,,,62.45849230000749,,,,62.453880599932745,62.46547789988108,62.46547789988108,62.75217079999857,62.75235029985197,62.77108149998821,62.77108149998821,63.06282659992576,63.06282659992576,63.05767160002142,62.75724700000137,62.75724700000137,,,,,,,,,,,,,207799,001,2025-03-13_01h49.20.650,Estimulo_ICE,2024.2.4,143.64452040259528,2025-03-13 01h49.23.904732 -0300,
Estimulo_2,3,3,0,1.4,-1.4,1.4,-1.4,2.2,-2.2,-2.2,2.2,0,2,2,2,,,,,0,3,3,3,,,,,,,,,,,,,,,,,,,,,,,,,63.06282659992576,,,,63.05794939980842,63.069743799977005,63.069743799977005,63.35664079990238,63.356819399865344,63.368261699797586,63.368261699797586,63.661730799824,63.661730799824,63.656842899974436,63.36140499985777,63.36140499985777,,,,,,,,,,,,,207799,001,2025-03-13_01h49.20.650,Estimulo_ICE,2024.2.4,143.64452040259528,2025-03-13 01h49.23.904732 -0300,
Estimulo_2,4,4,0,1.5,-1.5,1.5,-1.5,2.2,-2.2,-2.2,2.2,0,2,2,2,,,,,0,4,4,4,,,,,,,,,,,,,,,,,,,,,,,,,63.661730799824,,,,63.657143499935046,63.66893359995447,63.66893359995447,63.95457409997471,63.95475279982202,63.96651599998586,63.96651599998586,64.2582147999201,64.2582147999201,64.25336849992163,63.95972519996576,63.95972519996576,,,,,,,,,,,,,207799,001,2025-03-13_01h49.20.650,Estimulo_ICE,2024.2.4,143.64452040259528,2025-03-13 01h49.23.904732 -0300,
Estimulo_2,5,5,0,1.6,-1.6,1.6,-1.6,2.2,-2.2,-2.2,2.2,0,2,2,2,,,,,0,5,5,5,,,,,,,,,,,,,,,,,,,,,,,,,64.2582147999201,,,,64.25364349992014,64.26526979985647,64.26526979985647,64.55212429980747,64.55231049982831,64.57070819986984,64.57070819986984,64.86258849990554,64.86258849990554,64.85745839984156,64.5568221998401,64.5568221998401,,,,,,,,,,,,,207799,001,2025-03-13_01h49.20.650,Estimulo_ICE,2024.2.4,143.64452040259528,2025-03-13 01h49.23.904732 -0300,
Estimulo_2,6,6,0,1.7,-1.7,1.7,-1.7,2.2,-2.2,-2.2,2.2,0,2,2,2,,,,,0,6,6,6,,,,,,,,,,,,,,,,,,,,,,,,,64.86258849990554,,,,64.85778289986774,64.86931540002115,64.86931540002115,65.15619889996015,65.15637360000983,65.16794759989716,65.16794759989716,65.45973439980298,65.45973439980298,65.45463870000094,65.16099879983813,65.16099879983813,,,,,,,,,,,,,207799,001,2025-03-13_01h49.20.650,Estimulo_ICE,2024.2.4,143.64452040259528,2025-03-13 01h49.23.904732 -0300,
Estimulo_2,7,7,0,1.8,-1.8,1.8,-1.8,2.2,-2.2,-2.2,2.2,0,2,2,2,,,,,0,7,7,7,,,,,,,,,,,,,,,,,,,,,,,,,65.45973439980298,,,,65.45491129998118,65.46650290000252,65.46650290000252,65.75506499991752,65.75524169998243,65.76702059991658,65.76702059991658,66.05881019984372,66.05881019984372,66.05372389988042,65.7600423998665,65.7600423998665,,,,,,,,,,,,,207799,001,2025-03-13_01h49.20.650,Estimulo_ICE,2024.2.4,143.64452040259528,2025-03-13 01h49.23.904732 -0300,
,8,8,0,1.9,-1.9,1.9,-1.9,2.2,-2.2,-2.2,2.2,,,,,,,,,0,8,8,8,,,,,,,,,,,,,,,,,,,,,,,,,66.05881019984372,,,,66.05400280002505,66.06550289993174,66.06550289993174,66.35174539987929,66.35192059981637,66.3704701999668,66.3704701999668,,,,66.35658169980161,66.35658169980161,,,,,,,,,,,,,,,,,,,,
