LoopName,thisN,thisTrialN,thisRepN,px1,px2,px3,px4,py1,py2,py3,py4,MainLoop.thisRepN,MainLoop.thisTrialN,MainLoop.thisN,MainLoop.thisIndex,loop_1.thisRepN,loop_1.thisTrialN,loop_1.thisN,loop_1.thisIndex,loop_2.thisRepN,loop_2.thisTrialN,loop_2.thisN,loop_2.thisIndex,loop_3.thisRepN,loop_3.thisTrialN,loop_3.thisN,loop_3.thisIndex,loop_4.thisRepN,loop_4.thisTrialN,loop_4.thisN,loop_4.thisIndex,loop_5.thisRepN,loop_5.thisTrialN,loop_5.thisN,loop_5.thisIndex,loop_6.thisRepN,loop_6.thisTrialN,loop_6.thisN,loop_6.thisIndex,loop_7.thisRepN,loop_7.thisTrialN,loop_7.thisN,loop_7.thisIndex,loop_8.thisRepN,loop_8.thisTrialN,loop_8.thisN,loop_8.thisIndex,loop_9.thisRepN,loop_9.thisTrialN,loop_9.thisN,loop_9.thisIndex,loop_10.thisRepN,loop_10.thisTrialN,loop_10.thisN,loop_10.thisIndex,loop_11.thisRepN,loop_11.thisTrialN,loop_11.thisN,loop_11.thisIndex,loop_12.thisRepN,loop_12.thisTrialN,loop_12.thisN,loop_12.thisIndex,thisRow.t,notes,codigo.started,codigo.stopped,trial_3.started,image_5.started,image_6.started,polygon_3.started,trial_3.stopped,trial_4.started,image_7.started,image_8.started,polygon_4.started,image_7.stopped,image_8.stopped,polygon_4.stopped,trial_4.stopped,image_5.stopped,image_6.stopped,polygon_3.stopped,_intertrial_interval_.started,polygon_5.started,_intertrial_interval_.stopped,trial_5.started,image_9.started,polygon_6.started,image_10.started,trial_5.stopped,trial_6.started,image_11.started,image_12.started,polygon_7.started,trial_6.stopped,image_9.stopped,polygon_6.stopped,image_10.stopped,image_11.stopped,image_12.stopped,polygon_7.stopped,trial.started,image.started,image_2.started,polygon.started,trial.stopped,trial_2.started,image_3.started,image_4.started,polygon_2.started,trial_2.stopped,participant,session,date,expName,psychopyVersion,frameRate,expStart,
Estimulo_7,0,0,0,2.2,-2.2,-2.2,2.2,4.4,-4.4,4.4,-4.4,0,0,0,6,,,,,,,,,,,,,,,,,,,,,,,,,0,0,0,0,,,,,,,,,,,,,,,,,,,,,0.11950499999966269,,0.022975099999712256,0.02333749999979773,0.10668349999923521,0.11950499999966269,0.11950499999966269,0.11950499999966269,0.32198979999975563,0.3222212999999101,0.3358831999994436,0.3358831999994436,0.3358831999994436,0.635918899999524,0.635918899999524,0.635918899999524,0.621920599999612,,,,,,,,,,,,,,,,,,,,,,,,,,,,,,,,,271328,001,2025-03-17_15h27.33.800,Estimulo_ICE,2024.2.4,59.94661154795698,2025-03-17 15h27.40.607101 -0300,
Estimulo_7,1,1,0,2.2,-2.2,-2.2,2.2,4.3,-4.3,4.3,-4.3,0,0,0,6,,,,,,,,,,,,,,,,,,,,,,,,,0,1,1,1,,,,,,,,,,,,,,,,,,,,,0.635918899999524,,,,0.6222893999993175,0.635918899999524,0.635918899999524,0.635918899999524,0.921815599999718,0.9220666999999594,0.9359065999997256,0.9359065999997256,0.9359065999997256,1.2359006999995472,1.2359006999995472,1.2359006999995472,1.2218205999997735,0.9359065999997256,0.9359065999997256,0.9359065999997256,,,,,,,,,,,,,,,,,,,,,,,,,,,,,,271328,001,2025-03-17_15h27.33.800,Estimulo_ICE,2024.2.4,59.94661154795698,2025-03-17 15h27.40.607101 -0300,
Estimulo_7,2,2,0,2.2,-2.2,-2.2,2.2,4.2,-4.2,4.2,-4.2,0,0,0,6,,,,,,,,,,,,,,,,,,,,,,,,,0,2,2,2,,,,,,,,,,,,,,,,,,,,,1.2359006999995472,,,,1.222188599999754,1.2359006999995472,1.2359006999995472,1.2359006999995472,1.5218780999994124,1.522129899999527,1.5359957999999097,1.5359957999999097,1.5359957999999097,1.8358559999996942,1.8358559999996942,1.8358559999996942,1.8218608999995922,1.5359957999999097,1.5359957999999097,1.5359957999999097,,,,,,,,,,,,,,,,,,,,,,,,,,,,,,271328,001,2025-03-17_15h27.33.800,Estimulo_ICE,2024.2.4,59.94661154795698,2025-03-17 15h27.40.607101 -0300,
Estimulo_7,3,3,0,2.2,-2.2,-2.2,2.2,4.1,-4.1,4.1,-4.1,0,0,0,6,,,,,,,,,,,,,,,,,,,,,,,,,0,3,3,3,,,,,,,,,,,,,,,,,,,,,1.8358559999996942,,,,1.8222111999994013,1.8358559999996942,1.8358559999996942,1.8358559999996942,2.1218387999997503,2.1220900999996957,2.135941899999125,2.135941899999125,2.135941899999125,2.4359247999991567,2.4359247999991567,2.4359247999991567,2.4216836999994484,2.135941899999125,2.135941899999125,2.135941899999125,,,,,,,,,,,,,,,,,,,,,,,,,,,,,,271328,001,2025-03-17_15h27.33.800,Estimulo_ICE,2024.2.4,59.94661154795698,2025-03-17 15h27.40.607101 -0300,
Estimulo_7,4,4,0,2.2,-2.2,-2.2,2.2,4,-4,4,-4,0,0,0,6,,,,,,,,,,,,,,,,,,,,,,,,,0,4,4,4,,,,,,,,,,,,,,,,,,,,,2.4359247999991567,,,,2.422049299999344,2.4359247999991567,2.4359247999991567,2.4359247999991567,2.7218466999993325,2.7221004999992147,2.7359748999997464,2.7359748999997464,2.7359748999997464,3.0358877999997276,3.0358877999997276,3.0358877999997276,3.021691099999771,2.7359748999997464,2.7359748999997464,2.7359748999997464,,,,,,,,,,,,,,,,,,,,,,,,,,,,,,271328,001,2025-03-17_15h27.33.800,Estimulo_ICE,2024.2.4,59.94661154795698,2025-03-17 15h27.40.607101 -0300,
Estimulo_7,5,5,0,2.2,-2.2,-2.2,2.2,3.9,-3.9,3.9,-3.9,0,0,0,6,,,,,,,,,,,,,,,,,,,,,,,,,0,5,5,5,,,,,,,,,,,,,,,,,,,,,3.0358877999997276,,,,3.0220564999999624,3.0358877999997276,3.0358877999997276,3.0358877999997276,3.3217991999999867,3.322050499999932,3.3357262999998056,3.3357262999998056,3.3357262999998056,3.6359397999995053,3.6359397999995053,3.6359397999995053,3.6218747999992047,3.3357262999998056,3.3357262999998056,3.3357262999998056,,,,,,,,,,,,,,,,,,,,,,,,,,,,,,271328,001,2025-03-17_15h27.33.800,Estimulo_ICE,2024.2.4,59.94661154795698,2025-03-17 15h27.40.607101 -0300,
Estimulo_7,6,6,0,2.2,-2.2,-2.2,2.2,3.8,-3.8,3.8,-3.8,0,0,0,6,,,,,,,,,,,,,,,,,,,,,,,,,0,6,6,6,,,,,,,,,,,,,,,,,,,,,3.6359397999995053,,,,3.622244299999693,3.6359397999995053,3.6359397999995053,3.6359397999995053,3.921841499999573,3.9220926999996664,3.9358885999999984,3.9358885999999984,3.9358885999999984,4.2359529999994265,4.2359529999994265,4.2359529999994265,4.2218293999994785,3.9358885999999984,3.9358885999999984,3.9358885999999984,,,,,,,,,,,,,,,,,,,,,,,,,,,,,,271328,001,2025-03-17_15h27.33.800,Estimulo_ICE,2024.2.4,59.94661154795698,2025-03-17 15h27.40.607101 -0300,
Estimulo_7,7,7,0,2.2,-2.2,-2.2,2.2,3.7,-3.7,3.7,-3.7,0,0,0,6,,,,,,,,,,,,,,,,,,,,,,,,,0,7,7,7,,,,,,,,,,,,,,,,,,,,,4.2359529999994265,,,,4.222183099999711,4.2359529999994265,4.2359529999994265,4.2359529999994265,4.521794699999191,4.52204729999994,4.535723199999666,4.535723199999666,4.535723199999666,4.835911799999849,4.835911799999849,4.835911799999849,4.821884999999384,4.535723199999666,4.535723199999666,4.535723199999666,,,,,,,,,,,,,,,,,,,,,,,,,,,,,,271328,001,2025-03-17_15h27.33.800,Estimulo_ICE,2024.2.4,59.94661154795698,2025-03-17 15h27.40.607101 -0300,
Estimulo_7,8,8,0,2.2,-2.2,-2.2,2.2,3.6,-3.6,3.6,-3.6,0,0,0,6,,,,,,,,,,,,,,,,,,,,,,,,,0,8,8,8,,,,,,,,,,,,,,,,,,,,,4.835911799999849,,,,4.822251299999152,4.835911799999849,4.835911799999849,4.835911799999849,5.121671699999752,5.121923899999274,5.135935599999357,5.135935599999357,5.135935599999357,5.435848799999803,5.435848799999803,5.435848799999803,5.421759599999859,5.135935599999357,5.135935599999357,5.135935599999357,,,,,,,,,,,,,,,,,,,,,,,,,,,,,,271328,001,2025-03-17_15h27.33.800,Estimulo_ICE,2024.2.4,59.94661154795698,2025-03-17 15h27.40.607101 -0300,
Estimulo_7,9,9,0,2.2,-2.2,-2.2,2.2,3.5,-3.5,3.5,-3.5,0,0,0,6,,,,,,,,,,,,,,,,,,,,,,,,,0,9,9,9,,,,,,,,,,,,,,,,,,,,,5.435848799999803,,,,5.422127699999692,5.435848799999803,5.435848799999803,5.435848799999803,5.721839399999226,5.722081899999466,5.736261299999569,5.736261299999569,5.736261299999569,6.035941799999819,6.035941799999819,6.035941799999819,6.021814099999574,5.736261299999569,5.736261299999569,5.736261299999569,,,,,,,,,,,,,,,,,,,,,,,,,,,,,,271328,001,2025-03-17_15h27.33.800,Estimulo_ICE,2024.2.4,59.94661154795698,2025-03-17 15h27.40.607101 -0300,
Estimulo_7,10,10,0,2.2,-2.2,-2.2,2.2,3.39999999999999,-3.39999999999999,3.39999999999999,-3.39999999999999,0,0,0,6,,,,,,,,,,,,,,,,,,,,,,,,,0,10,10,10,,,,,,,,,,,,,,,,,,,,,6.035941799999819,,,,6.022182299999258,6.035941799999819,6.035941799999819,6.035941799999819,6.321736199999577,6.321990499999629,6.335942099999556,6.335942099999556,6.335942099999556,6.63598489999913,6.63598489999913,6.63598489999913,6.621609799999533,6.335942099999556,6.335942099999556,6.335942099999556,,,,,,,,,,,,,,,,,,,,,,,,,,,,,,271328,001,2025-03-17_15h27.33.800,Estimulo_ICE,2024.2.4,59.94661154795698,2025-03-17 15h27.40.607101 -0300,
Estimulo_7,11,11,0,2.2,-2.2,-2.2,2.2,3.29999999999999,-3.29999999999999,3.29999999999999,-3.29999999999999,0,0,0,6,,,,,,,,,,,,,,,,,,,,,,,,,0,11,11,11,,,,,,,,,,,,,,,,,,,,,6.63598489999913,,,,6.621976599999471,6.63598489999913,6.63598489999913,6.63598489999913,6.921755699999267,6.922008199999254,6.935876999999891,6.935876999999891,6.935876999999891,7.235801399999218,7.235801399999218,7.235801399999218,7.221648099999584,6.935876999999891,6.935876999999891,6.935876999999891,,,,,,,,,,,,,,,,,,,,,,,,,,,,,,271328,001,2025-03-17_15h27.33.800,Estimulo_ICE,2024.2.4,59.94661154795698,2025-03-17 15h27.40.607101 -0300,
Estimulo_7,12,12,0,2.2,-2.2,-2.2,2.2,3.19999999999999,-3.19999999999999,3.19999999999999,-3.19999999999999,0,0,0,6,,,,,,,,,,,,,,,,,,,,,,,,,0,12,12,12,,,,,,,,,,,,,,,,,,,,,7.235801399999218,,,,7.222020799999882,7.235801399999218,7.235801399999218,7.235801399999218,7.521615599999677,7.521865799999432,7.535865099999683,7.535865099999683,7.535865099999683,7.835709799999677,7.835709799999677,7.835709799999677,7.821766499999285,7.535865099999683,7.535865099999683,7.535865099999683,,,,,,,,,,,,,,,,,,,,,,,,,,,,,,271328,001,2025-03-17_15h27.33.800,Estimulo_ICE,2024.2.4,59.94661154795698,2025-03-17 15h27.40.607101 -0300,
Estimulo_7,13,13,0,2.2,-2.2,-2.2,2.2,3.09999999999999,-3.09999999999999,3.09999999999999,-3.09999999999999,0,0,0,6,,,,,,,,,,,,,,,,,,,,,,,,,0,13,13,13,,,,,,,,,,,,,,,,,,,,,7.835709799999677,,,,7.822136799999498,7.835709799999677,7.835709799999677,7.835709799999677,8.121788699999342,8.122041999999965,8.135681999999179,8.135681999999179,8.135681999999179,8.435875799999849,8.435875799999849,8.435875799999849,8.42170299999998,8.135681999999179,8.135681999999179,8.135681999999179,,,,,,,,,,,,,,,,,,,,,,,,,,,,,,271328,001,2025-03-17_15h27.33.800,Estimulo_ICE,2024.2.4,59.94661154795698,2025-03-17 15h27.40.607101 -0300,
Estimulo_7,14,14,0,2.2,-2.2,-2.2,2.2,2.99999999999999,-2.99999999999999,2.99999999999999,-2.99999999999999,0,0,0,6,,,,,,,,,,,,,,,,,,,,,,,,,0,14,14,14,,,,,,,,,,,,,,,,,,,,,8.435875799999849,,,,8.422072099999241,8.435875799999849,8.435875799999849,8.435875799999849,8.721788399999241,8.722038999999313,8.735760699999446,8.735760699999446,8.735760699999446,9.037078299999848,9.037078299999848,9.037078299999848,9.021683399999347,8.735760699999446,8.735760699999446,8.735760699999446,,,,,,,,,,,,,,,,,,,,,,,,,,,,,,271328,001,2025-03-17_15h27.33.800,Estimulo_ICE,2024.2.4,59.94661154795698,2025-03-17 15h27.40.607101 -0300,
Estimulo_7,15,15,0,2.2,-2.2,-2.2,2.2,2.89999999999999,-2.89999999999999,2.89999999999999,-2.89999999999999,0,0,0,6,,,,,,,,,,,,,,,,,,,,,,,,,0,15,15,15,,,,,,,,,,,,,,,,,,,,,9.037078299999848,,,,9.02204409999922,9.037078299999848,9.037078299999848,9.037078299999848,9.321857499999169,9.322114899999178,9.335887699999148,9.335887699999148,9.335887699999148,9.635900899999797,9.635900899999797,9.635900899999797,9.621861099999478,,,,,,,,,,,,,,,,,,,,,,,,,,,,,,,,,271328,001,2025-03-17_15h27.33.800,Estimulo_ICE,2024.2.4,59.94661154795698,2025-03-17 15h27.40.607101 -0300,
Estimulo_7,16,16,0,2.2,-2.2,-2.2,2.2,2.79999999999999,-2.79999999999999,2.79999999999999,-2.79999999999999,0,0,0,6,,,,,,,,,,,,,,,,,,,,,,,,,0,16,16,16,,,,,,,,,,,,,,,,,,,,,9.635900899999797,,,,9.622228999999606,9.635900899999797,9.635900899999797,9.635900899999797,9.921617499999229,9.921868299999915,9.935910399999557,9.935910399999557,9.935910399999557,10.23581969999941,10.23581969999941,10.23581969999941,10.221598599999197,9.935910399999557,9.935910399999557,9.935910399999557,,,,,,,,,,,,,,,,,,,,,,,,,,,,,,271328,001,2025-03-17_15h27.33.800,Estimulo_ICE,2024.2.4,59.94661154795698,2025-03-17 15h27.40.607101 -0300,
Estimulo_7,17,17,0,2.2,-2.2,-2.2,2.2,2.69999999999999,-2.69999999999999,2.69999999999999,-2.69999999999999,0,0,0,6,,,,,,,,,,,,,,,,,,,,,,,,,0,17,17,17,,,,,,,,,,,,,,,,,,,,,10.23581969999941,,,,10.221967599999516,10.23581969999941,10.23581969999941,10.23581969999941,10.52175459999944,10.52200619999985,10.535816999999952,10.535816999999952,10.535816999999952,10.835908899999595,10.835908899999595,10.835908899999595,10.821772599999349,10.535816999999952,10.535816999999952,10.535816999999952,,,,,,,,,,,,,,,,,,,,,,,,,,,,,,271328,001,2025-03-17_15h27.33.800,Estimulo_ICE,2024.2.4,59.94661154795698,2025-03-17 15h27.40.607101 -0300,
Estimulo_7,18,18,0,2.2,-2.2,-2.2,2.2,2.59999999999999,-2.59999999999999,2.59999999999999,-2.59999999999999,0,0,0,6,,,,,,,,,,,,,,,,,,,,,,,,,0,18,18,18,,,,,,,,,,,,,,,,,,,,,10.835908899999595,,,,10.822139399999287,10.835908899999595,10.835908899999595,10.835908899999595,11.121746999999232,11.121999599999981,11.135842400000001,11.135842400000001,11.135842400000001,11.43567559999974,11.43567559999974,11.43567559999974,11.421728499999517,11.135842400000001,11.135842400000001,11.135842400000001,,,,,,,,,,,,,,,,,,,,,,,,,,,,,,271328,001,2025-03-17_15h27.33.800,Estimulo_ICE,2024.2.4,59.94661154795698,2025-03-17 15h27.40.607101 -0300,
Estimulo_7,19,19,0,2.2,-2.2,-2.2,2.2,2.49999999999999,-2.49999999999999,2.49999999999999,-2.49999999999999,0,0,0,6,,,,,,,,,,,,,,,,,,,,,,,,,0,19,19,19,,,,,,,,,,,,,,,,,,,,,11.43567559999974,,,,11.42209559999992,11.43567559999974,11.43567559999974,11.43567559999974,11.721748699999807,11.722000999999182,11.735815499999262,11.735815499999262,11.735815499999262,12.035810699999274,12.035810699999274,12.035810699999274,12.021812499999214,11.735815499999262,11.735815499999262,11.735815499999262,,,,,,,,,,,,,,,,,,,,,,,,,,,,,,271328,001,2025-03-17_15h27.33.800,Estimulo_ICE,2024.2.4,59.94661154795698,2025-03-17 15h27.40.607101 -0300,
Estimulo_7,20,20,0,2.2,-2.2,-2.2,2.2,2.39999999999999,-2.39999999999999,2.39999999999999,-2.39999999999999,0,0,0,6,,,,,,,,,,,,,,,,,,,,,,,,,0,20,20,20,,,,,,,,,,,,,,,,,,,,,12.035810699999274,,,,12.022182599999724,12.035810699999274,12.035810699999274,12.035810699999274,12.321701999999277,12.321955199999138,12.335836799999925,12.335836799999925,12.335836799999925,12.635621599999467,12.635621599999467,12.635621599999467,12.621697999999924,12.335836799999925,12.335836799999925,12.335836799999925,,,,,,,,,,,,,,,,,,,,,,,,,,,,,,271328,001,2025-03-17_15h27.33.800,Estimulo_ICE,2024.2.4,59.94661154795698,2025-03-17 15h27.40.607101 -0300,
Estimulo_7,21,21,0,2.2,-2.2,-2.2,2.2,2.29999999999999,-2.29999999999999,2.29999999999999,-2.29999999999999,0,0,0,6,,,,,,,,,,,,,,,,,,,,,,,,,0,21,21,21,,,,,,,,,,,,,,,,,,,,,12.635621599999467,,,,12.622070399999757,12.635621599999467,12.635621599999467,12.635621599999467,12.921735799999624,12.921985299999506,12.93561899999986,12.93561899999986,12.93561899999986,13.235655799999222,13.235655799999222,13.235655799999222,13.221775099999832,12.93561899999986,12.93561899999986,12.93561899999986,,,,,,,,,,,,,,,,,,,,,,,,,,,,,,271328,001,2025-03-17_15h27.33.800,Estimulo_ICE,2024.2.4,59.94661154795698,2025-03-17 15h27.40.607101 -0300,
Estimulo_7,22,22,0,2.2,-2.2,-2.2,2.2,2.19999999999999,-2.19999999999999,2.19999999999999,-2.19999999999999,0,0,0,6,,,,,,,,,,,,,,,,,,,,,,,,,0,22,22,22,,,,,,,,,,,,,,,,,,,,,13.235655799999222,,,,13.22214619999977,13.235655799999222,13.235655799999222,13.235655799999222,13.521736599999713,13.521988799999235,13.535789799999293,13.535789799999293,13.535789799999293,13.835855199999969,13.835855199999969,13.835855199999969,13.821699899999658,13.535789799999293,13.535789799999293,13.535789799999293,,,,,,,,,,,,,,,,,,,,,,,,,,,,,,271328,001,2025-03-17_15h27.33.800,Estimulo_ICE,2024.2.4,59.94661154795698,2025-03-17 15h27.40.607101 -0300,
Estimulo_7,23,23,0,2.2,-2.2,-2.2,2.2,2.09999999999999,-2.09999999999999,2.09999999999999,-2.09999999999999,0,0,0,6,,,,,,,,,,,,,,,,,,,,,,,,,0,23,23,23,,,,,,,,,,,,,,,,,,,,,13.835855199999969,,,,13.822067099999913,13.835855199999969,13.835855199999969,13.835855199999969,14.121664499999497,14.121893499999715,14.13574079999944,14.13574079999944,14.13574079999944,14.435835699999188,14.435835699999188,14.435835699999188,14.421906599999602,14.13574079999944,14.13574079999944,14.13574079999944,,,,,,,,,,,,,,,,,,,,,,,,,,,,,,271328,001,2025-03-17_15h27.33.800,Estimulo_ICE,2024.2.4,59.94661154795698,2025-03-17 15h27.40.607101 -0300,
Estimulo_7,24,24,0,2.2,-2.2,-2.2,2.2,1.99999999999999,-1.99999999999999,1.99999999999999,-1.99999999999999,0,0,0,6,,,,,,,,,,,,,,,,,,,,,,,,,0,24,24,24,,,,,,,,,,,,,,,,,,,,,14.435835699999188,,,,14.422273499999392,14.435835699999188,14.435835699999188,14.435835699999188,14.72157900000002,14.721835499999543,14.735829899999771,14.735829899999771,14.735829899999771,15.035665499999595,15.035665499999595,15.035665499999595,15.021573099999841,14.735829899999771,14.735829899999771,14.735829899999771,,,,,,,,,,,,,,,,,,,,,,,,,,,,,,271328,001,2025-03-17_15h27.33.800,Estimulo_ICE,2024.2.4,59.94661154795698,2025-03-17 15h27.40.607101 -0300,
Estimulo_7,25,25,0,2.2,-2.2,-2.2,2.2,1.89999999999999,-1.89999999999999,1.89999999999999,-1.89999999999999,0,0,0,6,,,,,,,,,,,,,,,,,,,,,,,,,0,25,25,25,,,,,,,,,,,,,,,,,,,,,15.035665499999595,,,,15.0219462999994,15.035665499999595,15.035665499999595,15.035665499999595,15.321752199999537,15.322005399999398,15.335859299999356,15.335859299999356,15.335859299999356,15.635813299999427,15.635813299999427,15.635813299999427,15.621784099999786,15.335859299999356,15.335859299999356,15.335859299999356,,,,,,,,,,,,,,,,,,,,,,,,,,,,,,271328,001,2025-03-17_15h27.33.800,Estimulo_ICE,2024.2.4,59.94661154795698,2025-03-17 15h27.40.607101 -0300,
Estimulo_7,26,26,0,2.2,-2.2,-2.2,2.2,1.79999999999999,-1.79999999999999,1.79999999999999,-1.79999999999999,0,0,0,6,,,,,,,,,,,,,,,,,,,,,,,,,0,26,26,26,,,,,,,,,,,,,,,,,,,,,15.635813299999427,,,,15.622152599999936,15.635813299999427,15.635813299999427,15.635813299999427,15.921648599999571,15.921898399999918,15.935815199999524,15.935815199999524,15.935815199999524,16.235791199999767,16.235791199999767,16.235791199999767,16.221684499999355,15.935815199999524,15.935815199999524,15.935815199999524,,,,,,,,,,,,,,,,,,,,,,,,,,,,,,271328,001,2025-03-17_15h27.33.800,Estimulo_ICE,2024.2.4,59.94661154795698,2025-03-17 15h27.40.607101 -0300,
Estimulo_7,27,27,0,2.2,-2.2,-2.2,2.2,1.69999999999999,-1.69999999999999,1.69999999999999,-1.69999999999999,0,0,0,6,,,,,,,,,,,,,,,,,,,,,,,,,0,27,27,27,,,,,,,,,,,,,,,,,,,,,16.235791199999767,,,,16.222035899999355,16.235791199999767,16.235791199999767,16.235791199999767,16.521746399999756,16.52199709999968,16.535682599999745,16.535682599999745,16.535682599999745,16.83571419999953,16.83571419999953,16.83571419999953,16.82200329999978,16.535682599999745,16.535682599999745,16.535682599999745,,,,,,,,,,,,,,,,,,,,,,,,,,,,,,271328,001,2025-03-17_15h27.33.800,Estimulo_ICE,2024.2.4,59.94661154795698,2025-03-17 15h27.40.607101 -0300,
Estimulo_7,28,28,0,2.2,-2.2,-2.2,2.2,1.59999999999999,-1.59999999999999,1.59999999999999,-1.59999999999999,0,0,0,6,,,,,,,,,,,,,,,,,,,,,,,,,0,28,28,28,,,,,,,,,,,,,,,,,,,,,16.83571419999953,,,,16.82237719999921,16.83571419999953,16.83571419999953,16.83571419999953,17.123873199999252,17.12430999999924,17.1365382999993,17.1365382999993,17.1365382999993,17.43589769999926,17.43589769999926,17.43589769999926,17.422114499999225,,,,,,,,,,,,,,,,,,,,,,,,,,,,,,,,,271328,001,2025-03-17_15h27.33.800,Estimulo_ICE,2024.2.4,59.94661154795698,2025-03-17 15h27.40.607101 -0300,
Estimulo_7,29,29,0,2.2,-2.2,-2.2,2.2,1.49999999999998,-1.49999999999998,1.49999999999998,-1.49999999999998,0,0,0,6,,,,,,,,,,,,,,,,,,,,,,,,,0,29,29,29,,,,,,,,,,,,,,,,,,,,,17.43589769999926,,,,17.42254639999919,17.43589769999926,17.43589769999926,17.43589769999926,17.722194599999966,17.722491499999705,17.735891599999377,17.735891599999377,17.735891599999377,18.03578639999978,18.03578639999978,18.03578639999978,18.02164719999928,17.735891599999377,17.735891599999377,17.735891599999377,,,,,,,,,,,,,,,,,,,,,,,,,,,,,,271328,001,2025-03-17_15h27.33.800,Estimulo_ICE,2024.2.4,59.94661154795698,2025-03-17 15h27.40.607101 -0300,
Estimulo_7,30,30,0,2.2,-2.2,-2.2,2.2,1.39999999999998,-1.39999999999998,1.39999999999998,-1.39999999999998,0,0,0,6,,,,,,,,,,,,,,,,,,,,,,,,,0,30,30,30,,,,,,,,,,,,,,,,,,,,,18.03578639999978,,,,18.022017699999196,18.03578639999978,18.03578639999978,18.03578639999978,18.321659299999737,18.321912399999746,18.335801199999878,18.335801199999878,18.335801199999878,18.635785999999825,18.635785999999825,18.635785999999825,18.621614199999385,18.335801199999878,18.335801199999878,18.335801199999878,,,,,,,,,,,,,,,,,,,,,,,,,,,,,,271328,001,2025-03-17_15h27.33.800,Estimulo_ICE,2024.2.4,59.94661154795698,2025-03-17 15h27.40.607101 -0300,
Estimulo_7,31,31,0,2.2,-2.2,-2.2,2.2,1.29999999999998,-1.29999999999998,1.29999999999998,-1.29999999999998,0,0,0,6,,,,,,,,,,,,,,,,,,,,,,,,,0,31,31,31,,,,,,,,,,,,,,,,,,,,,18.635785999999825,,,,18.621987399999853,18.635785999999825,18.635785999999825,18.635785999999825,18.921703899999557,18.921954699999333,18.935757999999623,18.935757999999623,18.935757999999623,19.235738599999422,19.235738599999422,19.235738599999422,19.221540399999867,18.935757999999623,18.935757999999623,18.935757999999623,,,,,,,,,,,,,,,,,,,,,,,,,,,,,,271328,001,2025-03-17_15h27.33.800,Estimulo_ICE,2024.2.4,59.94661154795698,2025-03-17 15h27.40.607101 -0300,
Estimulo_7,32,32,0,2.2,-2.2,-2.2,2.2,1.19999999999998,-1.19999999999998,1.19999999999998,-1.19999999999998,0,0,0,6,,,,,,,,,,,,,,,,,,,,,,,,,0,32,32,32,,,,,,,,,,,,,,,,,,,,,19.235738599999422,,,,19.22190589999991,19.235738599999422,19.235738599999422,19.235738599999422,19.52188809999916,19.52214029999959,19.535777999999482,19.535777999999482,19.535777999999482,19.83577509999941,19.83577509999941,19.83577509999941,19.821710999999596,19.535777999999482,19.535777999999482,19.535777999999482,,,,,,,,,,,,,,,,,,,,,,,,,,,,,,271328,001,2025-03-17_15h27.33.800,Estimulo_ICE,2024.2.4,59.94661154795698,2025-03-17 15h27.40.607101 -0300,
Estimulo_7,33,33,0,2.2,-2.2,-2.2,2.2,1.09999999999998,-1.09999999999998,1.09999999999998,-1.09999999999998,0,0,0,6,,,,,,,,,,,,,,,,,,,,,,,,,0,33,33,33,,,,,,,,,,,,,,,,,,,,,19.83577509999941,,,,19.82208300000002,19.83577509999941,19.83577509999941,19.83577509999941,20.121605099999215,20.121856799999478,20.135912399999143,20.135912399999143,20.135912399999143,20.50200219999988,20.50200219999988,20.50200219999988,20.421668599999975,20.135912399999143,20.135912399999143,20.135912399999143,,,,,,,,,,,,,,,,,,,,,,,,,,,,,,271328,001,2025-03-17_15h27.33.800,Estimulo_ICE,2024.2.4,59.94661154795698,2025-03-17 15h27.40.607101 -0300,
Estimulo_7,0,0,0,,,,,,,,,0,0,0,6,,,,,,,,,,,,,,,,,,,,,,,,,,,,,,,,,,,,,,,,,,,,,,,,,,,,,,,,,,,,,,,,,,,,,20.48684449999928,20.50200219999988,21.937972799999443,,,,,,,,,,,,,,,,,,,,,,,,,,,271328,001,2025-03-17_15h27.33.800,Estimulo_ICE,2024.2.4,59.94661154795698,2025-03-17 15h27.40.607101 -0300,
Estimulo_11,0,0,0,2.2,-2.2,-2.2,2.2,4.4,-4.4,4.4,-4.4,0,1,1,10,,,,,,,,,,,,,,,,,,,,,,,,,,,,,,,,,,,,,,,,,0,0,0,0,,,,,22.08515709999938,,21.938082399999985,21.938421699999708,,,,,,,,,,,,,,,,,,,,22.068976099999418,22.08515709999938,22.08515709999938,22.08515709999938,22.254631699999663,22.25485039999967,22.269051999999647,22.269051999999647,22.269051999999647,22.554609299999356,,,,,,,,,,,,,,,,,271328,001,2025-03-17_15h27.33.800,Estimulo_ICE,2024.2.4,59.94661154795698,2025-03-17 15h27.40.607101 -0300,
Estimulo_11,1,1,0,2.2,-2.2,-2.2,2.2,4.3,-4.3,4.3,-4.3,0,1,1,10,,,,,,,,,,,,,,,,,,,,,,,,,,,,,,,,,,,,,,,,,0,1,1,1,,,,,22.569144799999776,,,,,,,,,,,,,,,,,,,,,,,22.55496459999995,22.569144799999776,22.569144799999776,22.569144799999776,22.854630399999223,22.85486999999921,22.86908879999919,22.86908879999919,22.86908879999919,23.154633999999533,,,,,,,,,,,,,,,,,271328,001,2025-03-17_15h27.33.800,Estimulo_ICE,2024.2.4,59.94661154795698,2025-03-17 15h27.40.607101 -0300,
Estimulo_11,2,2,0,2.2,-2.2,-2.2,2.2,4.2,-4.2,4.2,-4.2,0,1,1,10,,,,,,,,,,,,,,,,,,,,,,,,,,,,,,,,,,,,,,,,,0,2,2,2,,,,,23.16900319999968,,,,,,,,,,,,,,,,,,,,,,,23.154987799999617,23.16900319999968,23.16900319999968,23.16900319999968,23.454639999999927,23.45487839999987,23.46907689999989,23.46907689999989,23.46907689999989,23.754521199999544,,,,,,,,,,,,,,,,,271328,001,2025-03-17_15h27.33.800,Estimulo_ICE,2024.2.4,59.94661154795698,2025-03-17 15h27.40.607101 -0300,
Estimulo_11,3,3,0,2.2,-2.2,-2.2,2.2,4.1,-4.1,4.1,-4.1,0,1,1,10,,,,,,,,,,,,,,,,,,,,,,,,,,,,,,,,,,,,,,,,,0,3,3,3,,,,,23.769051799999943,,,,,,,,,,,,,,,,,,,,,,,23.754874799999925,23.769051799999943,23.769051799999943,23.769051799999943,24.055185399999573,24.05543139999918,24.069219399999383,24.069219399999383,24.069219399999383,24.35462909999933,,,,,,,,,,,,,,,,,271328,001,2025-03-17_15h27.33.800,Estimulo_ICE,2024.2.4,59.94661154795698,2025-03-17 15h27.40.607101 -0300,
Estimulo_11,4,4,0,2.2,-2.2,-2.2,2.2,4,-4,4,-4,0,1,1,10,,,,,,,,,,,,,,,,,,,,,,,,,,,,,,,,,,,,,,,,,0,4,4,4,,,,,24.368960199999492,,,,,,,,,,,,,,,,,,,,,,,24.354979899999307,24.368960199999492,24.368960199999492,24.368960199999492,24.65451629999916,24.6547544999994,24.669005599999764,24.669005599999764,24.669005599999764,24.94160969999939,,,,,,,,,,,,,,,,,271328,001,2025-03-17_15h27.33.800,Estimulo_ICE,2024.2.4,59.94661154795698,2025-03-17 15h27.40.607101 -0300,
Estimulo_11,5,5,0,2.2,-2.2,-2.2,2.2,3.9,-3.9,3.9,-3.9,0,1,1,10,,,,,,,,,,,,,,,,,,,,,,,,,,,,,,,,,,,,,,,,,0,5,5,5,,,,,24.95363709999947,,,,,,,,,,,,,,,,,,,,,,,24.94237829999929,24.95363709999947,24.95363709999947,24.95363709999947,25.254679799999394,25.254920099999254,25.269007099999726,25.269007099999726,25.269007099999726,25.554617899999357,,,,,,,,,,,,,,,,,271328,001,2025-03-17_15h27.33.800,Estimulo_ICE,2024.2.4,59.94661154795698,2025-03-17 15h27.40.607101 -0300,
Estimulo_11,6,6,0,2.2,-2.2,-2.2,2.2,3.8,-3.8,3.8,-3.8,0,1,1,10,,,,,,,,,,,,,,,,,,,,,,,,,,,,,,,,,,,,,,,,,0,6,6,6,,,,,25.568860599999425,,,,,,,,,,,,,,,,,,,,,,,25.554969099999653,25.568860599999425,25.568860599999425,25.568860599999425,25.854561099999955,25.854799699999603,25.86906099999942,25.86906099999942,25.86906099999942,26.15459489999921,,,,,,,,,,,,,,,,,271328,001,2025-03-17_15h27.33.800,Estimulo_ICE,2024.2.4,59.94661154795698,2025-03-17 15h27.40.607101 -0300,
Estimulo_11,7,7,0,2.2,-2.2,-2.2,2.2,3.7,-3.7,3.7,-3.7,0,1,1,10,,,,,,,,,,,,,,,,,,,,,,,,,,,,,,,,,,,,,,,,,0,7,7,7,,,,,26.168933499999184,,,,,,,,,,,,,,,,,,,,,,,26.154946599999676,26.168933499999184,26.168933499999184,26.168933499999184,26.454627499999333,26.45486229999915,26.46901059999982,26.46901059999982,26.46901059999982,26.754595499999596,,,,,,,,,,,,,,,,,271328,001,2025-03-17_15h27.33.800,Estimulo_ICE,2024.2.4,59.94661154795698,2025-03-17 15h27.40.607101 -0300,
Estimulo_11,8,8,0,2.2,-2.2,-2.2,2.2,3.6,-3.6,3.6,-3.6,0,1,1,10,,,,,,,,,,,,,,,,,,,,,,,,,,,,,,,,,,,,,,,,,0,8,8,8,,,,,26.76898599999913,,,,,,,,,,,,,,,,,,,,,,,26.754949099999976,26.76898599999913,26.76898599999913,26.76898599999913,27.054578799999945,27.054817999999614,27.0690941999992,27.0690941999992,27.0690941999992,27.354595399999198,,,,,,,,,,,,,,,,,271328,001,2025-03-17_15h27.33.800,Estimulo_ICE,2024.2.4,59.94661154795698,2025-03-17 15h27.40.607101 -0300,
Estimulo_11,9,9,0,2.2,-2.2,-2.2,2.2,3.5,-3.5,3.5,-3.5,0,1,1,10,,,,,,,,,,,,,,,,,,,,,,,,,,,,,,,,,,,,,,,,,0,9,9,9,,,,,27.369038499999988,,,,,,,,,,,,,,,,,,,,,,,27.35494899999958,27.369038499999988,27.369038499999988,27.369038499999988,27.65459869999995,27.65483519999998,27.66896489999999,27.66896489999999,27.66896489999999,27.954599400000006,,,,,,,,,,,,,,,,,271328,001,2025-03-17_15h27.33.800,Estimulo_ICE,2024.2.4,59.94661154795698,2025-03-17 15h27.40.607101 -0300,
Estimulo_11,10,10,0,2.2,-2.2,-2.2,2.2,3.39999999999999,-3.39999999999999,3.39999999999999,-3.39999999999999,0,1,1,10,,,,,,,,,,,,,,,,,,,,,,,,,,,,,,,,,,,,,,,,,0,10,10,10,,,,,27.968850499999462,,,,,,,,,,,,,,,,,,,,,,,27.954954299999372,27.968850499999462,27.968850499999462,27.968850499999462,28.25456369999938,28.25480569999945,28.269025799999326,28.269025799999326,28.269025799999326,28.554503899999872,,,,,,,,,,,,,,,,,271328,001,2025-03-17_15h27.33.800,Estimulo_ICE,2024.2.4,59.94661154795698,2025-03-17 15h27.40.607101 -0300,
Estimulo_11,11,11,0,2.2,-2.2,-2.2,2.2,3.29999999999999,-3.29999999999999,3.29999999999999,-3.29999999999999,0,1,1,10,,,,,,,,,,,,,,,,,,,,,,,,,,,,,,,,,,,,,,,,,0,11,11,11,,,,,28.569089799999347,,,,,,,,,,,,,,,,,,,,,,,28.55485789999966,28.569089799999347,28.569089799999347,28.569089799999347,28.85444869999992,28.85468739999942,28.869039799999882,28.869039799999882,28.869039799999882,29.15443309999955,,,,,,,,,,,,,,,,,271328,001,2025-03-17_15h27.33.800,Estimulo_ICE,2024.2.4,59.94661154795698,2025-03-17 15h27.40.607101 -0300,
Estimulo_11,12,12,0,2.2,-2.2,-2.2,2.2,3.19999999999999,-3.19999999999999,3.19999999999999,-3.19999999999999,0,1,1,10,,,,,,,,,,,,,,,,,,,,,,,,,,,,,,,,,,,,,,,,,0,12,12,12,,,,,29.16903849999926,,,,,,,,,,,,,,,,,,,,,,,29.15480799999932,29.16903849999926,29.16903849999926,29.16903849999926,29.45440199999939,29.454638699999123,29.4690058999995,29.4690058999995,29.4690058999995,29.754400999999234,,,,,,,,,,,,,,,,,271328,001,2025-03-17_15h27.33.800,Estimulo_ICE,2024.2.4,59.94661154795698,2025-03-17 15h27.40.607101 -0300,
Estimulo_11,13,13,0,2.2,-2.2,-2.2,2.2,3.09999999999999,-3.09999999999999,3.09999999999999,-3.09999999999999,0,1,1,10,,,,,,,,,,,,,,,,,,,,,,,,,,,,,,,,,,,,,,,,,0,13,13,13,,,,,29.769008699999176,,,,,,,,,,,,,,,,,,,,,,,29.754759899999954,29.769008699999176,29.769008699999176,29.769008699999176,30.0544347999994,30.054678599999534,30.069086999999854,30.069086999999854,30.069086999999854,30.354406099999323,,,,,,,,,,,,,,,,,271328,001,2025-03-17_15h27.33.800,Estimulo_ICE,2024.2.4,59.94661154795698,2025-03-17 15h27.40.607101 -0300,
Estimulo_11,14,14,0,2.2,-2.2,-2.2,2.2,2.99999999999999,-2.99999999999999,2.99999999999999,-2.99999999999999,0,1,1,10,,,,,,,,,,,,,,,,,,,,,,,,,,,,,,,,,,,,,,,,,0,14,14,14,,,,,30.36899219999941,,,,,,,,,,,,,,,,,,,,,,,30.35476010000002,30.36899219999941,30.36899219999941,30.36899219999941,30.654576299999462,30.65481269999964,30.669067199999517,30.669067199999517,30.669067199999517,30.95463739999923,,,,,,,,,,,,,,,,,271328,001,2025-03-17_15h27.33.800,Estimulo_ICE,2024.2.4,59.94661154795698,2025-03-17 15h27.40.607101 -0300,
Estimulo_11,15,15,0,2.2,-2.2,-2.2,2.2,2.89999999999999,-2.89999999999999,2.89999999999999,-2.89999999999999,0,1,1,10,,,,,,,,,,,,,,,,,,,,,,,,,,,,,,,,,,,,,,,,,0,15,15,15,,,,,30.96888839999974,,,,,,,,,,,,,,,,,,,,,,,30.954994399999123,30.96888839999974,30.96888839999974,30.96888839999974,31.254540499999166,31.25477899999987,31.269005499999366,31.269005499999366,31.269005499999366,31.55453689999922,,,,,,,,,,,,,,,,,271328,001,2025-03-17_15h27.33.800,Estimulo_ICE,2024.2.4,59.94661154795698,2025-03-17 15h27.40.607101 -0300,
Estimulo_11,16,16,0,2.2,-2.2,-2.2,2.2,2.79999999999999,-2.79999999999999,2.79999999999999,-2.79999999999999,0,1,1,10,,,,,,,,,,,,,,,,,,,,,,,,,,,,,,,,,,,,,,,,,0,16,16,16,,,,,31.56888589999926,,,,,,,,,,,,,,,,,,,,,,,31.554892399999517,31.56888589999926,31.56888589999926,31.56888589999926,31.854374799999277,31.854612299999644,31.869078399999125,31.869078399999125,31.869078399999125,32.15449779999926,,,,,,,,,,,,,,,,,271328,001,2025-03-17_15h27.33.800,Estimulo_ICE,2024.2.4,59.94661154795698,2025-03-17 15h27.40.607101 -0300,
Estimulo_11,17,17,0,2.2,-2.2,-2.2,2.2,2.69999999999999,-2.69999999999999,2.69999999999999,-2.69999999999999,0,1,1,10,,,,,,,,,,,,,,,,,,,,,,,,,,,,,,,,,,,,,,,,,0,17,17,17,,,,,32.16881739999917,,,,,,,,,,,,,,,,,,,,,,,32.15485439999975,32.16881739999917,32.16881739999917,32.16881739999917,32.45453179999913,32.45476829999916,32.46906769999987,32.46906769999987,32.46906769999987,32.75453019999986,,,,,,,,,,,,,,,,,271328,001,2025-03-17_15h27.33.800,Estimulo_ICE,2024.2.4,59.94661154795698,2025-03-17 15h27.40.607101 -0300,
Estimulo_11,18,18,0,2.2,-2.2,-2.2,2.2,2.59999999999999,-2.59999999999999,2.59999999999999,-2.59999999999999,0,1,1,10,,,,,,,,,,,,,,,,,,,,,,,,,,,,,,,,,,,,,,,,,0,18,18,18,,,,,32.76906710000003,,,,,,,,,,,,,,,,,,,,,,,32.75488609999957,32.76906710000003,32.76906710000003,32.76906710000003,33.05457919999935,33.05481819999932,33.0689511999999,33.0689511999999,33.0689511999999,33.35453589999997,,,,,,,,,,,,,,,,,271328,001,2025-03-17_15h27.33.800,Estimulo_ICE,2024.2.4,59.94661154795698,2025-03-17 15h27.40.607101 -0300,
Estimulo_11,19,19,0,2.2,-2.2,-2.2,2.2,2.49999999999999,-2.49999999999999,2.49999999999999,-2.49999999999999,0,1,1,10,,,,,,,,,,,,,,,,,,,,,,,,,,,,,,,,,,,,,,,,,0,19,19,19,,,,,33.36905159999969,,,,,,,,,,,,,,,,,,,,,,,33.35489579999921,33.36905159999969,33.36905159999969,33.36905159999969,33.654509199999666,33.654746799999884,33.668927199999416,33.668927199999416,33.668927199999416,33.954407100000026,,,,,,,,,,,,,,,,,271328,001,2025-03-17_15h27.33.800,Estimulo_ICE,2024.2.4,59.94661154795698,2025-03-17 15h27.40.607101 -0300,
Estimulo_11,20,20,0,2.2,-2.2,-2.2,2.2,2.39999999999999,-2.39999999999999,2.39999999999999,-2.39999999999999,0,1,1,10,,,,,,,,,,,,,,,,,,,,,,,,,,,,,,,,,,,,,,,,,0,20,20,20,,,,,33.9691272,,,,,,,,,,,,,,,,,,,,,,,33.95476289999988,33.9691272,33.9691272,33.9691272,34.25434580000001,34.25458629999957,34.26903019999918,34.26903019999918,34.26903019999918,34.55437999999958,,,,,,,,,,,,,,,,,271328,001,2025-03-17_15h27.33.800,Estimulo_ICE,2024.2.4,59.94661154795698,2025-03-17 15h27.40.607101 -0300,
Estimulo_11,21,21,0,2.2,-2.2,-2.2,2.2,2.29999999999999,-2.29999999999999,2.29999999999999,-2.29999999999999,0,1,1,10,,,,,,,,,,,,,,,,,,,,,,,,,,,,,,,,,,,,,,,,,0,21,21,21,,,,,34.56902119999995,,,,,,,,,,,,,,,,,,,,,,,34.5547360999999,34.56902119999995,34.56902119999995,34.56902119999995,34.85446789999969,34.85470499999974,34.86909299999934,34.86909299999934,34.86909299999934,35.154485599999134,,,,,,,,,,,,,,,,,271328,001,2025-03-17_15h27.33.800,Estimulo_ICE,2024.2.4,59.94661154795698,2025-03-17 15h27.40.607101 -0300,
Estimulo_11,22,22,0,2.2,-2.2,-2.2,2.2,2.19999999999999,-2.19999999999999,2.19999999999999,-2.19999999999999,0,1,1,10,,,,,,,,,,,,,,,,,,,,,,,,,,,,,,,,,,,,,,,,,0,22,22,22,,,,,35.16880469999978,,,,,,,,,,,,,,,,,,,,,,,35.15483899999981,35.16880469999978,35.16880469999978,35.16880469999978,35.454548599999725,35.454785699999775,35.46892619999926,35.46892619999926,35.46892619999926,35.754505199999585,,,,,,,,,,,,,,,,,271328,001,2025-03-17_15h27.33.800,Estimulo_ICE,2024.2.4,59.94661154795698,2025-03-17 15h27.40.607101 -0300,
Estimulo_11,23,23,0,2.2,-2.2,-2.2,2.2,2.09999999999999,-2.09999999999999,2.09999999999999,-2.09999999999999,0,1,1,10,,,,,,,,,,,,,,,,,,,,,,,,,,,,,,,,,,,,,,,,,0,23,23,23,,,,,35.76885239999956,,,,,,,,,,,,,,,,,,,,,,,35.75485839999965,35.76885239999956,35.76885239999956,35.76885239999956,36.05449589999989,36.05473499999971,36.06899609999982,36.06899609999982,36.06899609999982,36.35451169999942,,,,,,,,,,,,,,,,,271328,001,2025-03-17_15h27.33.800,Estimulo_ICE,2024.2.4,59.94661154795698,2025-03-17 15h27.40.607101 -0300,
Estimulo_11,24,24,0,2.2,-2.2,-2.2,2.2,1.99999999999999,-1.99999999999999,1.99999999999999,-1.99999999999999,0,1,1,10,,,,,,,,,,,,,,,,,,,,,,,,,,,,,,,,,,,,,,,,,0,24,24,24,,,,,36.36876129999928,,,,,,,,,,,,,,,,,,,,,,,36.354869699999654,36.36876129999928,36.36876129999928,36.36876129999928,36.6415494999992,36.64207129999977,36.65354009999919,36.65354009999919,36.65354009999919,36.942066699999486,,,,,,,,,,,,,,,,,271328,001,2025-03-17_15h27.33.800,Estimulo_ICE,2024.2.4,59.94661154795698,2025-03-17 15h27.40.607101 -0300,
Estimulo_11,25,25,0,2.2,-2.2,-2.2,2.2,1.89999999999999,-1.89999999999999,1.89999999999999,-1.89999999999999,0,1,1,10,,,,,,,,,,,,,,,,,,,,,,,,,,,,,,,,,,,,,,,,,0,25,25,25,,,,,36.95375449999938,,,,,,,,,,,,,,,,,,,,,,,36.94287859999986,36.95375449999938,36.95375449999938,36.95375449999938,37.254752499999995,37.2550113999996,37.269071099999564,37.269071099999564,37.269071099999564,37.5546762999993,,,,,,,,,,,,,,,,,271328,001,2025-03-17_15h27.33.800,Estimulo_ICE,2024.2.4,59.94661154795698,2025-03-17 15h27.40.607101 -0300,
Estimulo_11,26,26,0,2.2,-2.2,-2.2,2.2,1.79999999999999,-1.79999999999999,1.79999999999999,-1.79999999999999,0,1,1,10,,,,,,,,,,,,,,,,,,,,,,,,,,,,,,,,,,,,,,,,,0,26,26,26,,,,,37.56890479999947,,,,,,,,,,,,,,,,,,,,,,,37.555062599999474,37.56890479999947,37.56890479999947,37.56890479999947,37.84207409999999,37.84262029999991,37.853612999999314,37.853612999999314,37.853612999999314,38.13923999999952,,,,,,,,,,,,,,,,,271328,001,2025-03-17_15h27.33.800,Estimulo_ICE,2024.2.4,59.94661154795698,2025-03-17 15h27.40.607101 -0300,
Estimulo_11,27,27,0,2.2,-2.2,-2.2,2.2,1.69999999999999,-1.69999999999999,1.69999999999999,-1.69999999999999,0,1,1,10,,,,,,,,,,,,,,,,,,,,,,,,,,,,,,,,,,,,,,,,,0,27,27,27,,,,,38.15280519999942,,,,,,,,,,,,,,,,,,,,,,,38.139757399999326,38.15280519999942,38.15280519999942,38.15280519999942,38.43814099999963,38.43839619999926,38.45232759999999,38.45232759999999,38.45232759999999,38.7382192999994,38.45232759999999,38.45232759999999,38.45232759999999,38.75218769999992,38.75218769999992,38.75218769999992,,,,,,,,,,,271328,001,2025-03-17_15h27.33.800,Estimulo_ICE,2024.2.4,59.94661154795698,2025-03-17 15h27.40.607101 -0300,
Estimulo_11,28,28,0,2.2,-2.2,-2.2,2.2,1.59999999999999,-1.59999999999999,1.59999999999999,-1.59999999999999,0,1,1,10,,,,,,,,,,,,,,,,,,,,,,,,,,,,,,,,,,,,,,,,,0,28,28,28,,,,,38.75218769999992,,,,,,,,,,,,,,,,,,,,,,,38.73859589999938,38.75218769999992,38.75218769999992,38.75218769999992,39.038131899999826,39.03838649999943,39.052234799999496,39.052234799999496,39.052234799999496,39.33808279999994,39.052234799999496,39.052234799999496,39.052234799999496,39.35221829999955,39.35221829999955,39.35221829999955,,,,,,,,,,,271328,001,2025-03-17_15h27.33.800,Estimulo_ICE,2024.2.4,59.94661154795698,2025-03-17 15h27.40.607101 -0300,
Estimulo_11,29,29,0,2.2,-2.2,-2.2,2.2,1.49999999999998,-1.49999999999998,1.49999999999998,-1.49999999999998,0,1,1,10,,,,,,,,,,,,,,,,,,,,,,,,,,,,,,,,,,,,,,,,,0,29,29,29,,,,,39.35221829999955,,,,,,,,,,,,,,,,,,,,,,,39.33846089999952,39.35221829999955,39.35221829999955,39.35221829999955,39.638023699999394,39.63827669999955,39.65226519999942,39.65226519999942,39.65226519999942,39.93805899999916,39.65226519999942,39.65226519999942,39.65226519999942,39.9522793999995,39.9522793999995,39.9522793999995,,,,,,,,,,,271328,001,2025-03-17_15h27.33.800,Estimulo_ICE,2024.2.4,59.94661154795698,2025-03-17 15h27.40.607101 -0300,
Estimulo_11,30,30,0,2.2,-2.2,-2.2,2.2,1.39999999999998,-1.39999999999998,1.39999999999998,-1.39999999999998,0,1,1,10,,,,,,,,,,,,,,,,,,,,,,,,,,,,,,,,,,,,,,,,,0,30,30,30,,,,,39.9522793999995,,,,,,,,,,,,,,,,,,,,,,,39.93843949999973,39.9522793999995,39.9522793999995,39.9522793999995,40.23817289999988,40.23842749999949,40.252197999999225,40.252197999999225,40.252197999999225,40.53813329999957,40.252197999999225,40.252197999999225,40.252197999999225,40.55225369999971,40.55225369999971,40.55225369999971,,,,,,,,,,,271328,001,2025-03-17_15h27.33.800,Estimulo_ICE,2024.2.4,59.94661154795698,2025-03-17 15h27.40.607101 -0300,
Estimulo_11,31,31,0,2.2,-2.2,-2.2,2.2,1.29999999999998,-1.29999999999998,1.29999999999998,-1.29999999999998,0,1,1,10,,,,,,,,,,,,,,,,,,,,,,,,,,,,,,,,,,,,,,,,,0,31,31,31,,,,,40.55225369999971,,,,,,,,,,,,,,,,,,,,,,,40.53851139999915,40.55225369999971,40.55225369999971,40.55225369999971,40.83828379999977,40.83853539999927,40.85207769999943,40.85207769999943,40.85207769999943,41.13837429999967,40.85207769999943,40.85207769999943,40.85207769999943,41.15221919999931,41.15221919999931,41.15221919999931,,,,,,,,,,,271328,001,2025-03-17_15h27.33.800,Estimulo_ICE,2024.2.4,59.94661154795698,2025-03-17 15h27.40.607101 -0300,
Estimulo_11,32,32,0,2.2,-2.2,-2.2,2.2,1.19999999999998,-1.19999999999998,1.19999999999998,-1.19999999999998,0,1,1,10,,,,,,,,,,,,,,,,,,,,,,,,,,,,,,,,,,,,,,,,,0,32,32,32,,,,,41.15221919999931,,,,,,,,,,,,,,,,,,,,,,,41.138751099999354,41.15221919999931,41.15221919999931,41.15221919999931,41.437980400000015,41.438233500000024,41.452258399999664,41.452258399999664,41.452258399999664,41.73807769999985,41.452258399999664,41.452258399999664,41.452258399999664,41.75218289999975,41.75218289999975,41.75218289999975,,,,,,,,,,,271328,001,2025-03-17_15h27.33.800,Estimulo_ICE,2024.2.4,59.94661154795698,2025-03-17 15h27.40.607101 -0300,
Estimulo_11,33,33,0,2.2,-2.2,-2.2,2.2,1.09999999999998,-1.09999999999998,1.09999999999998,-1.09999999999998,0,1,1,10,,,,,,,,,,,,,,,,,,,,,,,,,,,,,,,,,,,,,,,,,0,33,33,33,,,,,41.75218289999975,,,,,,,,,,,,,,,,,,,,,,,41.73845229999915,41.75218289999975,41.75218289999975,41.75218289999975,42.03814919999968,42.038404799999626,42.05220499999996,42.05220499999996,42.05220499999996,42.34122259999913,42.05220499999996,42.05220499999996,42.05220499999996,,,,,,,,,,,,,,271328,001,2025-03-17_15h27.33.800,Estimulo_ICE,2024.2.4,59.94661154795698,2025-03-17 15h27.40.607101 -0300,
Estimulo_11,1,1,0,,,,,,,,,0,1,1,10,,,,,,,,,,,,,,,,,,,,,,,,,,,,,,,,,,,,,,,,,,,,,,,,,,,,,,,,,,,,,,,,,,,,,42.36983399999917,42.38492739999947,43.8544153999992,,,,,,,,,,,,,,,,,,,,,,,,,,,271328,001,2025-03-17_15h27.33.800,Estimulo_ICE,2024.2.4,59.94661154795698,2025-03-17 15h27.40.607101 -0300,
Estimulo_5,0,0,0,4.4,-4.4,4.4,-4.4,2.2,-2.2,-2.2,2.2,0,2,2,4,,,,,,,,,,,,,,,,,0,0,0,0,,,,,,,,,,,,,,,,,,,,,,,,,,,,,43.91835609999998,,43.85452349999923,43.85485879999942,43.913502499999595,43.91835609999998,43.91835609999998,43.91835609999998,44.15471029999935,44.154939699999886,44.168694799999685,44.168694799999685,44.168694799999685,44.46890339999936,44.46890339999936,44.46890339999936,44.454812899999524,,,,,,,,,,,,,,,,,,,,,,,,,,,,,,,,,271328,001,2025-03-17_15h27.33.800,Estimulo_ICE,2024.2.4,59.94661154795698,2025-03-17 15h27.40.607101 -0300,
Estimulo_5,1,1,0,4.3,-4.3,4.3,-4.3,2.2,-2.2,-2.2,2.2,0,2,2,4,,,,,,,,,,,,,,,,,0,1,1,1,,,,,,,,,,,,,,,,,,,,,,,,,,,,,44.46890339999936,,,,44.45518969999921,44.46890339999936,44.46890339999936,44.46890339999936,44.754816599999685,44.75506879999921,44.76893349999955,44.76893349999955,44.76893349999955,45.068975899999714,45.068975899999714,45.068975899999714,45.05482249999932,44.76893349999955,44.76893349999955,44.76893349999955,,,,,,,,,,,,,,,,,,,,,,,,,,,,,,271328,001,2025-03-17_15h27.33.800,Estimulo_ICE,2024.2.4,59.94661154795698,2025-03-17 15h27.40.607101 -0300,
Estimulo_5,2,2,0,4.2,-4.2,4.2,-4.2,2.2,-2.2,-2.2,2.2,0,2,2,4,,,,,,,,,,,,,,,,,0,2,2,2,,,,,,,,,,,,,,,,,,,,,,,,,,,,,45.068975899999714,,,,45.055200399999194,45.068975899999714,45.068975899999714,45.068975899999714,45.354836599999544,45.35509099999945,45.36878209999941,45.36878209999941,45.36878209999941,45.668914299999415,45.668914299999415,45.668914299999415,45.654764399999294,45.36878209999941,45.36878209999941,45.36878209999941,,,,,,,,,,,,,,,,,,,,,,,,,,,,,,271328,001,2025-03-17_15h27.33.800,Estimulo_ICE,2024.2.4,59.94661154795698,2025-03-17 15h27.40.607101 -0300,
Estimulo_5,3,3,0,4.1,-4.1,4.1,-4.1,2.2,-2.2,-2.2,2.2,0,2,2,4,,,,,,,,,,,,,,,,,0,3,3,3,,,,,,,,,,,,,,,,,,,,,,,,,,,,,45.668914299999415,,,,45.655145299999276,45.668914299999415,45.668914299999415,45.668914299999415,45.954810299999735,45.955062299999554,45.96872179999991,45.96872179999991,45.96872179999991,46.26894019999963,46.26894019999963,46.26894019999963,46.25481319999926,45.96872179999991,45.96872179999991,45.96872179999991,,,,,,,,,,,,,,,,,,,,,,,,,,,,,,271328,001,2025-03-17_15h27.33.800,Estimulo_ICE,2024.2.4,59.94661154795698,2025-03-17 15h27.40.607101 -0300,
Estimulo_5,4,4,0,4,-4,4,-4,2.2,-2.2,-2.2,2.2,0,2,2,4,,,,,,,,,,,,,,,,,0,4,4,4,,,,,,,,,,,,,,,,,,,,,,,,,,,,,46.26894019999963,,,,46.25519349999922,46.26894019999963,46.26894019999963,46.26894019999963,46.55481279999913,46.55506349999996,46.56882329999917,46.56882329999917,46.56882329999917,46.868659699999625,46.868659699999625,46.868659699999625,46.85473829999955,46.56882329999917,46.56882329999917,46.56882329999917,,,,,,,,,,,,,,,,,,,,,,,,,,,,,,271328,001,2025-03-17_15h27.33.800,Estimulo_ICE,2024.2.4,59.94661154795698,2025-03-17 15h27.40.607101 -0300,
Estimulo_5,5,5,0,3.9,-3.9,3.9,-3.9,2.2,-2.2,-2.2,2.2,0,2,2,4,,,,,,,,,,,,,,,,,0,5,5,5,,,,,,,,,,,,,,,,,,,,,,,,,,,,,46.868659699999625,,,,46.85512039999958,46.868659699999625,46.868659699999625,46.868659699999625,47.154788399999234,47.15504529999998,47.168781399999716,47.168781399999716,47.168781399999716,47.46864679999999,47.46864679999999,47.46864679999999,47.45461819999946,47.168781399999716,47.168781399999716,47.168781399999716,,,,,,,,,,,,,,,,,,,,,,,,,,,,,,271328,001,2025-03-17_15h27.33.800,Estimulo_ICE,2024.2.4,59.94661154795698,2025-03-17 15h27.40.607101 -0300,
Estimulo_5,6,6,0,3.8,-3.8,3.8,-3.8,2.2,-2.2,-2.2,2.2,0,2,2,4,,,,,,,,,,,,,,,,,0,6,6,6,,,,,,,,,,,,,,,,,,,,,,,,,,,,,47.46864679999999,,,,47.45499869999912,47.46864679999999,47.46864679999999,47.46864679999999,47.754874699999164,47.75512939999953,47.76888509999935,47.76888509999935,47.76888509999935,,,,48.04556739999953,47.76888509999935,47.76888509999935,47.76888509999935,,,,,,,,,,,,,,,,,,,,,,,,,,,,,,271328,001,2025-03-17_15h27.33.800,Estimulo_ICE,2024.2.4,59.94661154795698,2025-03-17 15h27.40.607101 -0300,
Estimulo_5,7,7,0,3.7,-3.7,3.7,-3.7,2.2,-2.2,-2.2,2.2,0,2,2,4,,,,,,,,,,,,,,,,,0,7,7,7,,,,,,,,,,,,,,,,,,,,,,,,,,,,,48.053770799999256,,,,48.04677240000001,48.053770799999256,48.053770799999256,48.053770799999256,48.34167519999937,48.34219469999971,48.37203939999927,48.37203939999927,48.37203939999927,,,,48.65460269999949,48.354397099999915,48.354397099999915,48.354397099999915,,,,,,,,,,,,,,,,,,,,,,,,,,,,,,271328,001,2025-03-17_15h27.33.800,Estimulo_ICE,2024.2.4,59.94661154795698,2025-03-17 15h27.40.607101 -0300,
Estimulo_5,8,8,0,3.6,-3.6,3.6,-3.6,2.2,-2.2,-2.2,2.2,0,2,2,4,,,,,,,,,,,,,,,,,0,8,8,8,,,,,,,,,,,,,,,,,,,,,,,,,,,,,48.66879189999963,,,,48.654980699999214,48.66879189999963,48.66879189999963,48.66879189999963,48.95473949999996,48.95499439999912,48.96864379999988,48.96864379999988,48.96864379999988,49.26884059999975,49.26884059999975,49.26884059999975,49.25474969999959,48.96864379999988,48.96864379999988,48.96864379999988,,,,,,,,,,,,,,,,,,,,,,,,,,,,,,271328,001,2025-03-17_15h27.33.800,Estimulo_ICE,2024.2.4,59.94661154795698,2025-03-17 15h27.40.607101 -0300,
Estimulo_5,9,9,0,3.5,-3.5,3.5,-3.5,2.2,-2.2,-2.2,2.2,0,2,2,4,,,,,,,,,,,,,,,,,0,9,9,9,,,,,,,,,,,,,,,,,,,,,,,,,,,,,49.26884059999975,,,,49.255129499999384,49.26884059999975,49.26884059999975,49.26884059999975,49.5546977999993,49.55494989999988,49.56882079999923,49.56882079999923,49.56882079999923,49.86866429999918,49.86866429999918,49.86866429999918,49.854769399999896,49.56882079999923,49.56882079999923,49.56882079999923,,,,,,,,,,,,,,,,,,,,,,,,,,,,,,271328,001,2025-03-17_15h27.33.800,Estimulo_ICE,2024.2.4,59.94661154795698,2025-03-17 15h27.40.607101 -0300,
Estimulo_5,10,10,0,3.39999999999999,-3.39999999999999,3.39999999999999,-3.39999999999999,2.2,-2.2,-2.2,2.2,0,2,2,4,,,,,,,,,,,,,,,,,0,10,10,10,,,,,,,,,,,,,,,,,,,,,,,,,,,,,49.86866429999918,,,,49.85514889999922,49.86866429999918,49.86866429999918,49.86866429999918,50.15483989999939,50.155092399999376,50.16879209999934,50.16879209999934,50.16879209999934,50.46891069999947,50.46891069999947,50.46891069999947,50.45475499999975,50.16879209999934,50.16879209999934,50.16879209999934,,,,,,,,,,,,,,,,,,,,,,,,,,,,,,271328,001,2025-03-17_15h27.33.800,Estimulo_ICE,2024.2.4,59.94661154795698,2025-03-17 15h27.40.607101 -0300,
Estimulo_5,11,11,0,3.29999999999999,-3.29999999999999,3.29999999999999,-3.29999999999999,2.2,-2.2,-2.2,2.2,0,2,2,4,,,,,,,,,,,,,,,,,0,11,11,11,,,,,,,,,,,,,,,,,,,,,,,,,,,,,50.46891069999947,,,,50.45513629999914,50.46891069999947,50.46891069999947,50.46891069999947,50.75460369999928,50.75485570000001,50.76885409999977,50.76885409999977,50.76885409999977,,,,51.05980189999991,50.76885409999977,50.76885409999977,50.76885409999977,,,,,,,,,,,,,,,,,,,,,,,,,,,,,,271328,001,2025-03-17_15h27.33.800,Estimulo_ICE,2024.2.4,59.94661154795698,2025-03-17 15h27.40.607101 -0300,
Estimulo_5,12,12,0,3.19999999999999,-3.19999999999999,3.19999999999999,-3.19999999999999,2.2,-2.2,-2.2,2.2,0,2,2,4,,,,,,,,,,,,,,,,,0,12,12,12,,,,,,,,,,,,,,,,,,,,,,,,,,,,,51.07044959999985,,,,51.06075729999975,51.07044959999985,51.07044959999985,51.07044959999985,51.35526140000002,51.35555029999978,51.36902699999973,51.36902699999973,51.36902699999973,51.66888029999973,51.66888029999973,51.66888029999973,51.65520539999943,,,,,,,,,,,,,,,,,,,,,,,,,,,,,,,,,271328,001,2025-03-17_15h27.33.800,Estimulo_ICE,2024.2.4,59.94661154795698,2025-03-17 15h27.40.607101 -0300,
Estimulo_5,13,13,0,3.09999999999999,-3.09999999999999,3.09999999999999,-3.09999999999999,2.2,-2.2,-2.2,2.2,0,2,2,4,,,,,,,,,,,,,,,,,0,13,13,13,,,,,,,,,,,,,,,,,,,,,,,,,,,,,51.66888029999973,,,,51.65563629999997,51.66888029999973,51.66888029999973,51.66888029999973,51.955141999999796,51.95543289999932,51.96877509999922,51.96877509999922,51.96877509999922,52.26900449999994,52.26900449999994,52.26900449999994,52.25506629999927,51.96877509999922,51.96877509999922,51.96877509999922,,,,,,,,,,,,,,,,,,,,,,,,,,,,,,271328,001,2025-03-17_15h27.33.800,Estimulo_ICE,2024.2.4,59.94661154795698,2025-03-17 15h27.40.607101 -0300,
Estimulo_5,14,14,0,2.99999999999999,-2.99999999999999,2.99999999999999,-2.99999999999999,2.2,-2.2,-2.2,2.2,0,2,2,4,,,,,,,,,,,,,,,,,0,14,14,14,,,,,,,,,,,,,,,,,,,,,,,,,,,,,52.26900449999994,,,,52.25550479999947,52.26900449999994,52.26900449999994,52.26900449999994,52.555279499999415,52.555567899999915,52.568881399999555,52.568881399999555,52.568881399999555,52.86888219999946,52.86888219999946,52.86888219999946,52.85534859999916,52.568881399999555,52.568881399999555,52.568881399999555,,,,,,,,,,,,,,,,,,,,,,,,,,,,,,271328,001,2025-03-17_15h27.33.800,Estimulo_ICE,2024.2.4,59.94661154795698,2025-03-17 15h27.40.607101 -0300,
Estimulo_5,15,15,0,2.89999999999999,-2.89999999999999,2.89999999999999,-2.89999999999999,2.2,-2.2,-2.2,2.2,0,2,2,4,,,,,,,,,,,,,,,,,0,15,15,15,,,,,,,,,,,,,,,,,,,,,,,,,,,,,52.86888219999946,,,,52.85578429999987,52.86888219999946,52.86888219999946,52.86888219999946,53.15519999999924,53.15549059999921,53.16894239999965,53.16894239999965,53.16894239999965,53.46888279999985,53.46888279999985,53.46888279999985,53.45511819999956,53.16894239999965,53.16894239999965,53.16894239999965,,,,,,,,,,,,,,,,,,,,,,,,,,,,,,271328,001,2025-03-17_15h27.33.800,Estimulo_ICE,2024.2.4,59.94661154795698,2025-03-17 15h27.40.607101 -0300,
Estimulo_5,16,16,0,2.79999999999999,-2.79999999999999,2.79999999999999,-2.79999999999999,2.2,-2.2,-2.2,2.2,0,2,2,4,,,,,,,,,,,,,,,,,0,16,16,16,,,,,,,,,,,,,,,,,,,,,,,,,,,,,53.46888279999985,,,,53.45555249999961,53.46888279999985,53.46888279999985,53.46888279999985,53.755264699999316,53.75555329999952,53.76892329999919,53.76892329999919,53.76892329999919,54.06891489999998,54.06891489999998,54.06891489999998,54.05502679999972,53.76892329999919,53.76892329999919,53.76892329999919,,,,,,,,,,,,,,,,,,,,,,,,,,,,,,271328,001,2025-03-17_15h27.33.800,Estimulo_ICE,2024.2.4,59.94661154795698,2025-03-17 15h27.40.607101 -0300,
Estimulo_5,17,17,0,2.69999999999999,-2.69999999999999,2.69999999999999,-2.69999999999999,2.2,-2.2,-2.2,2.2,0,2,2,4,,,,,,,,,,,,,,,,,0,17,17,17,,,,,,,,,,,,,,,,,,,,,,,,,,,,,54.06891489999998,,,,54.05546400000003,54.06891489999998,54.06891489999998,54.06891489999998,54.35458699999981,54.35484289999931,54.368766499999765,54.368766499999765,54.368766499999765,54.6688323999997,54.6688323999997,54.6688323999997,54.65471199999956,54.368766499999765,54.368766499999765,54.368766499999765,,,,,,,,,,,,,,,,,,,,,,,,,,,,,,271328,001,2025-03-17_15h27.33.800,Estimulo_ICE,2024.2.4,59.94661154795698,2025-03-17 15h27.40.607101 -0300,
Estimulo_5,18,18,0,2.59999999999999,-2.59999999999999,2.59999999999999,-2.59999999999999,2.2,-2.2,-2.2,2.2,0,2,2,4,,,,,,,,,,,,,,,,,0,18,18,18,,,,,,,,,,,,,,,,,,,,,,,,,,,,,54.6688323999997,,,,54.65509329999986,54.6688323999997,54.6688323999997,54.6688323999997,54.954789499999606,54.95504169999913,54.968692099999316,54.968692099999316,54.968692099999316,55.268776799999614,55.268776799999614,55.268776799999614,55.25473299999976,54.968692099999316,54.968692099999316,54.968692099999316,,,,,,,,,,,,,,,,,,,,,,,,,,,,,,271328,001,2025-03-17_15h27.33.800,Estimulo_ICE,2024.2.4,59.94661154795698,2025-03-17 15h27.40.607101 -0300,
Estimulo_5,19,19,0,2.49999999999999,-2.49999999999999,2.49999999999999,-2.49999999999999,2.2,-2.2,-2.2,2.2,0,2,2,4,,,,,,,,,,,,,,,,,0,19,19,19,,,,,,,,,,,,,,,,,,,,,,,,,,,,,55.268776799999614,,,,55.25511749999987,55.268776799999614,55.268776799999614,55.268776799999614,55.554737399999794,55.554982599999676,55.568665699999656,55.568665699999656,55.568665699999656,55.86876359999951,55.86876359999951,55.86876359999951,55.854543499999636,55.568665699999656,55.568665699999656,55.568665699999656,,,,,,,,,,,,,,,,,,,,,,,,,,,,,,271328,001,2025-03-17_15h27.33.800,Estimulo_ICE,2024.2.4,59.94661154795698,2025-03-17 15h27.40.607101 -0300,
Estimulo_5,20,20,0,2.39999999999999,-2.39999999999999,2.39999999999999,-2.39999999999999,2.2,-2.2,-2.2,2.2,0,2,2,4,,,,,,,,,,,,,,,,,0,20,20,20,,,,,,,,,,,,,,,,,,,,,,,,,,,,,55.86876359999951,,,,55.854923199999575,55.86876359999951,55.86876359999951,55.86876359999951,56.154799199999616,56.155053399999815,56.16879599999993,56.16879599999993,56.16879599999993,56.468718199999785,56.468718199999785,56.468718199999785,56.45454669999981,56.16879599999993,56.16879599999993,56.16879599999993,,,,,,,,,,,,,,,,,,,,,,,,,,,,,,271328,001,2025-03-17_15h27.33.800,Estimulo_ICE,2024.2.4,59.94661154795698,2025-03-17 15h27.40.607101 -0300,
Estimulo_5,21,21,0,2.29999999999999,-2.29999999999999,2.29999999999999,-2.29999999999999,2.2,-2.2,-2.2,2.2,0,2,2,4,,,,,,,,,,,,,,,,,0,21,21,21,,,,,,,,,,,,,,,,,,,,,,,,,,,,,56.468718199999785,,,,56.4549236999992,56.468718199999785,56.468718199999785,56.468718199999785,56.75469919999978,56.75495259999934,56.7687120999999,56.7687120999999,56.7687120999999,57.06855929999983,57.06855929999983,57.06855929999983,57.054671699999744,56.7687120999999,56.7687120999999,56.7687120999999,,,,,,,,,,,,,,,,,,,,,,,,,,,,,,271328,001,2025-03-17_15h27.33.800,Estimulo_ICE,2024.2.4,59.94661154795698,2025-03-17 15h27.40.607101 -0300,
Estimulo_5,22,22,0,2.19999999999999,-2.19999999999999,2.19999999999999,-2.19999999999999,2.2,-2.2,-2.2,2.2,0,2,2,4,,,,,,,,,,,,,,,,,0,22,22,22,,,,,,,,,,,,,,,,,,,,,,,,,,,,,57.06855929999983,,,,57.055051999999705,57.06855929999983,57.06855929999983,57.06855929999983,57.354770999999346,57.35501809999914,57.36874790000002,57.36874790000002,57.36874790000002,57.66868339999928,57.66868339999928,57.66868339999928,57.65466859999924,57.36874790000002,57.36874790000002,57.36874790000002,,,,,,,,,,,,,,,,,,,,,,,,,,,,,,271328,001,2025-03-17_15h27.33.800,Estimulo_ICE,2024.2.4,59.94661154795698,2025-03-17 15h27.40.607101 -0300,
Estimulo_5,23,23,0,2.09999999999999,-2.09999999999999,2.09999999999999,-2.09999999999999,2.2,-2.2,-2.2,2.2,0,2,2,4,,,,,,,,,,,,,,,,,0,23,23,23,,,,,,,,,,,,,,,,,,,,,,,,,,,,,57.66868339999928,,,,57.655048599999645,57.66868339999928,57.66868339999928,57.66868339999928,57.95457029999943,57.95482670000001,57.96856079999998,57.96856079999998,57.96856079999998,58.26859699999932,58.26859699999932,58.26859699999932,58.25471359999938,57.96856079999998,57.96856079999998,57.96856079999998,,,,,,,,,,,,,,,,,,,,,,,,,,,,,,271328,001,2025-03-17_15h27.33.800,Estimulo_ICE,2024.2.4,59.94661154795698,2025-03-17 15h27.40.607101 -0300,
Estimulo_5,24,24,0,1.99999999999999,-1.99999999999999,1.99999999999999,-1.99999999999999,2.2,-2.2,-2.2,2.2,0,2,2,4,,,,,,,,,,,,,,,,,0,24,24,24,,,,,,,,,,,,,,,,,,,,,,,,,,,,,58.26859699999932,,,,58.25507999999991,58.26859699999932,58.26859699999932,58.26859699999932,58.55473359999996,58.55498989999978,58.568796999999904,58.568796999999904,58.568796999999904,58.86872839999978,58.86872839999978,58.86872839999978,58.85461309999937,58.568796999999904,58.568796999999904,58.568796999999904,,,,,,,,,,,,,,,,,,,,,,,,,,,,,,271328,001,2025-03-17_15h27.33.800,Estimulo_ICE,2024.2.4,59.94661154795698,2025-03-17 15h27.40.607101 -0300,
Estimulo_5,25,25,0,1.89999999999999,-1.89999999999999,1.89999999999999,-1.89999999999999,2.2,-2.2,-2.2,2.2,0,2,2,4,,,,,,,,,,,,,,,,,0,25,25,25,,,,,,,,,,,,,,,,,,,,,,,,,,,,,58.86872839999978,,,,58.854995799999415,58.86872839999978,58.86872839999978,58.86872839999978,59.15462209999987,59.15487469999971,59.168799999999464,59.168799999999464,59.168799999999464,59.46863349999967,59.46863349999967,59.46863349999967,59.454701399999976,59.168799999999464,59.168799999999464,59.168799999999464,,,,,,,,,,,,,,,,,,,,,,,,,,,,,,271328,001,2025-03-17_15h27.33.800,Estimulo_ICE,2024.2.4,59.94661154795698,2025-03-17 15h27.40.607101 -0300,
Estimulo_5,26,26,0,1.79999999999999,-1.79999999999999,1.79999999999999,-1.79999999999999,2.2,-2.2,-2.2,2.2,0,2,2,4,,,,,,,,,,,,,,,,,0,26,26,26,,,,,,,,,,,,,,,,,,,,,,,,,,,,,59.46863349999967,,,,59.45507169999928,59.46863349999967,59.46863349999967,59.46863349999967,59.75458789999993,59.75484299999971,59.768838199999664,59.768838199999664,59.768838199999664,60.068704599999364,60.068704599999364,60.068704599999364,60.054537099999834,59.768838199999664,59.768838199999664,59.768838199999664,,,,,,,,,,,,,,,,,,,,,,,,,,,,,,271328,001,2025-03-17_15h27.33.800,Estimulo_ICE,2024.2.4,59.94661154795698,2025-03-17 15h27.40.607101 -0300,
Estimulo_5,27,27,0,1.69999999999999,-1.69999999999999,1.69999999999999,-1.69999999999999,2.2,-2.2,-2.2,2.2,0,2,2,4,,,,,,,,,,,,,,,,,0,27,27,27,,,,,,,,,,,,,,,,,,,,,,,,,,,,,60.068704599999364,,,,60.05490329999975,60.068704599999364,60.068704599999364,60.068704599999364,60.35463869999967,60.35489349999989,60.36869879999995,60.36869879999995,60.36869879999995,60.66866140000002,60.66866140000002,60.66866140000002,60.654621299999235,60.36869879999995,60.36869879999995,60.36869879999995,,,,,,,,,,,,,,,,,,,,,,,,,,,,,,271328,001,2025-03-17_15h27.33.800,Estimulo_ICE,2024.2.4,59.94661154795698,2025-03-17 15h27.40.607101 -0300,
Estimulo_5,28,28,0,1.59999999999999,-1.59999999999999,1.59999999999999,-1.59999999999999,2.2,-2.2,-2.2,2.2,0,2,2,4,,,,,,,,,,,,,,,,,0,28,28,28,,,,,,,,,,,,,,,,,,,,,,,,,,,,,60.66866140000002,,,,60.65500179999981,60.66866140000002,60.66866140000002,60.66866140000002,60.9546406999998,60.95488489999934,60.968623099999604,60.968623099999604,60.968623099999604,61.26873869999963,61.26873869999963,61.26873869999963,61.25449389999994,60.968623099999604,60.968623099999604,60.968623099999604,,,,,,,,,,,,,,,,,,,,,,,,,,,,,,271328,001,2025-03-17_15h27.33.800,Estimulo_ICE,2024.2.4,59.94661154795698,2025-03-17 15h27.40.607101 -0300,
Estimulo_5,29,29,0,1.49999999999999,-1.49999999999998,1.49999999999999,-1.49999999999998,2.2,-2.2,-2.2,2.2,0,2,2,4,,,,,,,,,,,,,,,,,0,29,29,29,,,,,,,,,,,,,,,,,,,,,,,,,,,,,61.26873869999963,,,,61.254878999999164,61.26873869999963,61.26873869999963,61.26873869999963,61.55447549999917,61.554729899999984,61.56869729999926,61.56869729999926,61.56869729999926,61.86871769999925,61.86871769999925,61.86871769999925,61.85455219999949,61.56869729999926,61.56869729999926,61.56869729999926,,,,,,,,,,,,,,,,,,,,,,,,,,,,,,271328,001,2025-03-17_15h27.33.800,Estimulo_ICE,2024.2.4,59.94661154795698,2025-03-17 15h27.40.607101 -0300,
Estimulo_5,30,30,0,1.39999999999999,-1.39999999999998,1.39999999999999,-1.39999999999998,2.2,-2.2,-2.2,2.2,0,2,2,4,,,,,,,,,,,,,,,,,0,30,30,30,,,,,,,,,,,,,,,,,,,,,,,,,,,,,61.86871769999925,,,,61.854933899999196,61.86871769999925,61.86871769999925,61.86871769999925,62.15452049999931,62.15477529999953,62.168761599999925,62.168761599999925,62.168761599999925,62.468700599999465,62.468700599999465,62.468700599999465,62.45453879999968,62.168761599999925,62.168761599999925,62.168761599999925,,,,,,,,,,,,,,,,,,,,,,,,,,,,,,271328,001,2025-03-17_15h27.33.800,Estimulo_ICE,2024.2.4,59.94661154795698,2025-03-17 15h27.40.607101 -0300,
Estimulo_5,31,31,0,1.29999999999999,-1.29999999999998,1.29999999999999,-1.29999999999998,2.2,-2.2,-2.2,2.2,0,2,2,4,,,,,,,,,,,,,,,,,0,31,31,31,,,,,,,,,,,,,,,,,,,,,,,,,,,,,62.468700599999465,,,,62.454920799999854,62.468700599999465,62.468700599999465,62.468700599999465,62.75458239999989,62.754811199999494,62.76880589999928,62.76880589999928,62.76880589999928,63.068644899999526,63.068644899999526,63.068644899999526,63.05454659999941,62.76880589999928,62.76880589999928,62.76880589999928,,,,,,,,,,,,,,,,,,,,,,,,,,,,,,271328,001,2025-03-17_15h27.33.800,Estimulo_ICE,2024.2.4,59.94661154795698,2025-03-17 15h27.40.607101 -0300,
Estimulo_5,32,32,0,1.19999999999999,-1.19999999999998,1.19999999999999,-1.19999999999998,2.2,-2.2,-2.2,2.2,0,2,2,4,,,,,,,,,,,,,,,,,0,32,32,32,,,,,,,,,,,,,,,,,,,,,,,,,,,,,63.068644899999526,,,,63.05492799999956,63.068644899999526,63.068644899999526,63.068644899999526,63.35459589999937,63.354848399999355,63.368672999999944,63.368672999999944,63.368672999999944,63.66872329999933,63.66872329999933,63.66872329999933,63.65447079999922,63.368672999999944,63.368672999999944,63.368672999999944,,,,,,,,,,,,,,,,,,,,,,,,,,,,,,271328,001,2025-03-17_15h27.33.800,Estimulo_ICE,2024.2.4,59.94661154795698,2025-03-17 15h27.40.607101 -0300,
Estimulo_5,33,33,0,1.09999999999999,-1.09999999999998,1.09999999999999,-1.09999999999998,2.2,-2.2,-2.2,2.2,0,2,2,4,,,,,,,,,,,,,,,,,0,33,33,33,,,,,,,,,,,,,,,,,,,,,,,,,,,,,63.66872329999933,,,,63.65485139999964,63.66872329999933,63.66872329999933,63.66872329999933,63.95460430000003,63.95485739999913,63.96864779999942,63.96864779999942,63.96864779999942,64.35157329999947,64.35157329999947,64.35157329999947,64.25447359999998,63.96864779999942,63.96864779999942,63.96864779999942,,,,,,,,,,,,,,,,,,,,,,,,,,,,,,271328,001,2025-03-17_15h27.33.800,Estimulo_ICE,2024.2.4,59.94661154795698,2025-03-17 15h27.40.607101 -0300,
Estimulo_5,2,2,0,,,,,,,,,0,2,2,4,,,,,,,,,,,,,,,,,,,,,,,,,,,,,,,,,,,,,,,,,,,,,,,,,,,,,,,,,,,,,,,,,,,,,64.3425557999999,64.35157329999947,65.75791279999976,,,,,,,,,,,,,,,,,,,,,,,,,,,271328,001,2025-03-17_15h27.33.800,Estimulo_ICE,2024.2.4,59.94661154795698,2025-03-17 15h27.40.607101 -0300,
Estimulo_3,0,0,0,2.2,-2.2,-2.2,2.2,4.4,-4.4,4.4,-4.4,0,3,3,2,,,,,,,,,0,0,0,0,,,,,,,,,,,,,,,,,,,,,,,,,,,,,,,,,,,,,65.81820369999969,,65.75814209999953,65.75876289999997,,,,,,,,,,,,,,,,,,,,,,,,,,,,,,,,,,,,65.80713469999955,65.81820369999969,65.81820369999969,65.81820369999969,66.0708455999993,66.07106809999914,66.08538429999953,66.08538429999953,66.08538429999953,66.37069299999985,271328,001,2025-03-17_15h27.33.800,Estimulo_ICE,2024.2.4,59.94661154795698,2025-03-17 15h27.40.607101 -0300,
Estimulo_3,1,1,0,2.2,-2.2,-2.2,2.2,4.3,-4.3,4.3,-4.3,0,3,3,2,,,,,,,,,0,1,1,1,,,,,,,,,,,,,,,,,,,,,,,,,,,,,,,,,,,,,66.38540029999967,,,,,,,,,,,,,,,,,,,,,,,,,,,,,,,,,,,,,,,66.3710532999994,66.38540029999967,66.38540029999967,66.38540029999967,66.66030789999968,66.66100409999945,66.67052879999937,66.67052879999937,66.67052879999937,66.97308099999918,271328,001,2025-03-17_15h27.33.800,Estimulo_ICE,2024.2.4,59.94661154795698,2025-03-17 15h27.40.607101 -0300,
Estimulo_3,2,2,0,2.2,-2.2,-2.2,2.2,4.2,-4.2,4.2,-4.2,0,3,3,2,,,,,,,,,0,2,2,2,,,,,,,,,,,,,,,,,,,,,,,,,,,,,,,,,,,,,66.98594529999991,,,,,,,,,,,,,,,,,,,,,,,,,,,,,,,,,,,,,,,66.97369289999915,66.98594529999991,66.98594529999991,66.98594529999991,67.27311729999929,67.27353319999929,67.28556379999918,67.28556379999918,67.28556379999918,67.57090959999914,271328,001,2025-03-17_15h27.33.800,Estimulo_ICE,2024.2.4,59.94661154795698,2025-03-17 15h27.40.607101 -0300,
Estimulo_3,3,3,0,2.2,-2.2,-2.2,2.2,4.1,-4.1,4.1,-4.1,0,3,3,2,,,,,,,,,0,3,3,3,,,,,,,,,,,,,,,,,,,,,,,,,,,,,,,,,,,,,67.58537649999926,,,,,,,,,,,,,,,,,,,,,,,,,,,,,,,,,,,,,,,67.57129899999927,67.58537649999926,67.58537649999926,67.58537649999926,67.87104949999957,67.87130739999975,67.8854365999996,67.8854365999996,67.8854365999996,68.17097560000002,271328,001,2025-03-17_15h27.33.800,Estimulo_ICE,2024.2.4,59.94661154795698,2025-03-17 15h27.40.607101 -0300,
Estimulo_3,4,4,0,2.2,-2.2,-2.2,2.2,4,-4,4,-4,0,3,3,2,,,,,,,,,0,4,4,4,,,,,,,,,,,,,,,,,,,,,,,,,,,,,,,,,,,,,68.18534539999928,,,,,,,,,,,,,,,,,,,,,,,,,,,,,,,,,,,,,,,68.17136489999939,68.18534539999928,68.18534539999928,68.18534539999928,68.4710529999993,68.47131179999997,68.48524909999924,68.48524909999924,68.48524909999924,68.77107969999997,271328,001,2025-03-17_15h27.33.800,Estimulo_ICE,2024.2.4,59.94661154795698,2025-03-17 15h27.40.607101 -0300,
Estimulo_3,5,5,0,2.2,-2.2,-2.2,2.2,3.9,-3.9,3.9,-3.9,0,3,3,2,,,,,,,,,0,5,5,5,,,,,,,,,,,,,,,,,,,,,,,,,,,,,,,,,,,,,68.78533819999939,,,,,,,,,,,,,,,,,,,,,,,,,,,,,,,,,,,,,,,68.77146819999962,68.78533819999939,68.78533819999939,68.78533819999939,69.07415189999938,69.0746436999998,69.08623949999946,69.08623949999946,69.08623949999946,69.3708074999995,271328,001,2025-03-17_15h27.33.800,Estimulo_ICE,2024.2.4,59.94661154795698,2025-03-17 15h27.40.607101 -0300,
Estimulo_3,6,6,0,2.2,-2.2,-2.2,2.2,3.8,-3.8,3.8,-3.8,0,3,3,2,,,,,,,,,0,6,6,6,,,,,,,,,,,,,,,,,,,,,,,,,,,,,,,,,,,,,69.38532139999916,,,,,,,,,,,,,,,,,,,,,,,,,,,,,,,,,,,,,,,69.37116659999992,69.38532139999916,69.38532139999916,69.38532139999916,69.67078779999974,69.6710266,69.68537930000002,69.68537930000002,69.68537930000002,69.97054630000002,271328,001,2025-03-17_15h27.33.800,Estimulo_ICE,2024.2.4,59.94661154795698,2025-03-17 15h27.40.607101 -0300,
Estimulo_3,7,7,0,2.2,-2.2,-2.2,2.2,3.7,-3.7,3.7,-3.7,0,3,3,2,,,,,,,,,0,7,7,7,,,,,,,,,,,,,,,,,,,,,,,,,,,,,,,,,,,,,69.98540289999983,,,,,,,,,,,,,,,,,,,,,,,,,,,,,,,,,,,,,,,69.97088409999924,69.98540289999983,69.98540289999983,69.98540289999983,70.27110579999953,70.27135689999977,70.2852828999994,70.2852828999994,70.2852828999994,70.57081279999966,271328,001,2025-03-17_15h27.33.800,Estimulo_ICE,2024.2.4,59.94661154795698,2025-03-17 15h27.40.607101 -0300,
,8,8,0,2.2,-2.2,-2.2,2.2,3.6,-3.6,3.6,-3.6,,,,,,,,,,,,,0,8,8,8,,,,,,,,,,,,,,,,,,,,,,,,,,,,,,,,,,,,,70.5852789999999,,,,,,,,,,,,,,,,,,,,,,,,,,,,,,,,,,,,,,,70.57117159999962,70.5852789999999,70.5852789999999,70.5852789999999,70.87076669999988,70.8710074999999,70.8853640999996,70.8853640999996,70.8853640999996,,,,,,,,,
