LoopName,thisN,thisTrialN,thisRepN,px1,px2,px3,px4,py1,py2,py3,py4,MainLoop.thisRepN,MainLoop.thisTrialN,MainLoop.thisN,MainLoop.thisIndex,loop_1.thisRepN,loop_1.thisTrialN,loop_1.thisN,loop_1.thisIndex,loop_2.thisRepN,loop_2.thisTrialN,loop_2.thisN,loop_2.thisIndex,loop_3.thisRepN,loop_3.thisTrialN,loop_3.thisN,loop_3.thisIndex,loop_4.thisRepN,loop_4.thisTrialN,loop_4.thisN,loop_4.thisIndex,loop_5.thisRepN,loop_5.thisTrialN,loop_5.thisN,loop_5.thisIndex,loop_6.thisRepN,loop_6.thisTrialN,loop_6.thisN,loop_6.thisIndex,loop_7.thisRepN,loop_7.thisTrialN,loop_7.thisN,loop_7.thisIndex,loop_8.thisRepN,loop_8.thisTrialN,loop_8.thisN,loop_8.thisIndex,loop_9.thisRepN,loop_9.thisTrialN,loop_9.thisN,loop_9.thisIndex,loop_10.thisRepN,loop_10.thisTrialN,loop_10.thisN,loop_10.thisIndex,loop_11.thisRepN,loop_11.thisTrialN,loop_11.thisN,loop_11.thisIndex,loop_12.thisRepN,loop_12.thisTrialN,loop_12.thisN,loop_12.thisIndex,thisRow.t,notes,codigo.started,codigo.stopped,trial_3.started,image_5.started,image_6.started,polygon_3.started,trial_3.stopped,trial_4.started,image_7.started,image_8.started,polygon_4.started,image_7.stopped,image_8.stopped,polygon_4.stopped,trial_4.stopped,image_5.stopped,image_6.stopped,polygon_3.stopped,_intertrial_interval_.started,polygon_5.started,_intertrial_interval_.stopped,trial.started,image.started,image_2.started,polygon.started,trial.stopped,trial_2.started,image_3.started,image_4.started,polygon_2.started,trial_2.stopped,image.stopped,image_2.stopped,polygon.stopped,image_3.stopped,image_4.stopped,polygon_2.stopped,participant,session,date,expName,psychopyVersion,frameRate,expStart,
Estimulo_6,0,0,0,1.1,-1.1,1.1,-1.1,2.2,-2.2,-2.2,2.2,0,0,0,5,,,,,,,,,,,,,,,,,,,,,0,0,0,0,,,,,,,,,,,,,,,,,,,,,,,,,0.10973109997576103,,0.017831799981649965,0.018147399998269975,0.09241260000271723,0.10973109997576103,0.10973109997576103,0.10973109997576103,0.31386390002444386,0.3142973000067286,0.3266566999955103,0.3266566999955103,0.3266566999955103,0.6267106999875978,0.6267106999875978,0.6267106999875978,0.614899999985937,,,,,,,,,,,,,,,,,,,,,,,284399,001,2025-03-20_15h50.51.077,Estimulo_ICE,2024.2.4,59.98436808732614,2025-03-20 15h50.56.580611 -0300,
Estimulo_6,1,1,0,1.2,-1.2,1.2,-1.2,2.2,-2.2,-2.2,2.2,0,0,0,5,,,,,,,,,,,,,,,,,,,,,0,1,1,1,,,,,,,,,,,,,,,,,,,,,,,,,0.6267106999875978,,,,0.615576800017152,0.6267106999875978,0.6267106999875978,0.6267106999875978,0.9146569999866188,0.9151249999995343,0.9266711000236683,0.9266711000236683,0.9266711000236683,1.226089600007981,1.226089600007981,1.226089600007981,1.2121352999820374,0.9266711000236683,0.9266711000236683,0.9266711000236683,,,,,,,,,,,,,,,,,,,,284399,001,2025-03-20_15h50.51.077,Estimulo_ICE,2024.2.4,59.98436808732614,2025-03-20 15h50.56.580611 -0300,
Estimulo_6,2,2,0,1.3,-1.3,1.3,-1.3,2.2,-2.2,-2.2,2.2,0,0,0,5,,,,,,,,,,,,,,,,,,,,,0,2,2,2,,,,,,,,,,,,,,,,,,,,,,,,,1.226089600007981,,,,1.2125262999907136,1.226089600007981,1.226089600007981,1.226089600007981,1.5120779999997467,1.512352199992165,1.5259731999831274,1.5259731999831274,1.5259731999831274,1.8259448999888264,1.8259448999888264,1.8259448999888264,1.81221220002044,1.5259731999831274,1.5259731999831274,1.5259731999831274,,,,,,,,,,,,,,,,,,,,284399,001,2025-03-20_15h50.51.077,Estimulo_ICE,2024.2.4,59.98436808732614,2025-03-20 15h50.56.580611 -0300,
Estimulo_6,3,3,0,1.4,-1.4,1.4,-1.4,2.2,-2.2,-2.2,2.2,0,0,0,5,,,,,,,,,,,,,,,,,,,,,0,3,3,3,,,,,,,,,,,,,,,,,,,,,,,,,1.8259448999888264,,,,1.8126088000135496,1.8259448999888264,1.8259448999888264,1.8259448999888264,2.1121724999975413,2.1124443000298925,2.125807599979453,2.125807599979453,2.125807599979453,2.427100299973972,2.427100299973972,2.427100299973972,2.417381800012663,2.125807599979453,2.125807599979453,2.125807599979453,,,,,,,,,,,,,,,,,,,,284399,001,2025-03-20_15h50.51.077,Estimulo_ICE,2024.2.4,59.98436808732614,2025-03-20 15h50.56.580611 -0300,
Estimulo_6,4,4,0,1.5,-1.5,1.5,-1.5,2.2,-2.2,-2.2,2.2,0,0,0,5,,,,,,,,,,,,,,,,,,,,,0,4,4,4,,,,,,,,,,,,,,,,,,,,,,,,,2.427100299973972,,,,2.418374600005336,2.427100299973972,2.427100299973972,2.427100299973972,2.711892999999691,2.712148300022818,2.7258900000015274,2.7258900000015274,2.7258900000015274,3.0259736999869347,3.0259736999869347,3.0259736999869347,3.0119338000076823,,,,,,,,,,,,,,,,,,,,,,,284399,001,2025-03-20_15h50.51.077,Estimulo_ICE,2024.2.4,59.98436808732614,2025-03-20 15h50.56.580611 -0300,
Estimulo_6,5,5,0,1.6,-1.6,1.6,-1.6,2.2,-2.2,-2.2,2.2,0,0,0,5,,,,,,,,,,,,,,,,,,,,,0,5,5,5,,,,,,,,,,,,,,,,,,,,,,,,,3.0259736999869347,,,,3.012301500013564,3.0259736999869347,3.0259736999869347,3.0259736999869347,3.3119175999891013,3.3121718000038527,3.3259076999966055,3.3259076999966055,3.3259076999966055,3.62595890002558,3.62595890002558,3.62595890002558,3.6124410000047646,3.3259076999966055,3.3259076999966055,3.3259076999966055,,,,,,,,,,,,,,,,,,,,284399,001,2025-03-20_15h50.51.077,Estimulo_ICE,2024.2.4,59.98436808732614,2025-03-20 15h50.56.580611 -0300,
Estimulo_6,6,6,0,1.7,-1.7,1.7,-1.7,2.2,-2.2,-2.2,2.2,0,0,0,5,,,,,,,,,,,,,,,,,,,,,0,6,6,6,,,,,,,,,,,,,,,,,,,,,,,,,3.62595890002558,,,,3.6128092000144534,3.62595890002558,3.62595890002558,3.62595890002558,3.9119790000258945,3.912232899980154,3.925922000024002,3.925922000024002,3.925922000024002,4.227648500003852,4.227648500003852,4.227648500003852,4.21767899999395,3.925922000024002,3.925922000024002,3.925922000024002,,,,,,,,,,,,,,,,,,,,284399,001,2025-03-20_15h50.51.077,Estimulo_ICE,2024.2.4,59.98436808732614,2025-03-20 15h50.56.580611 -0300,
Estimulo_6,7,7,0,1.8,-1.8,1.8,-1.8,2.2,-2.2,-2.2,2.2,0,0,0,5,,,,,,,,,,,,,,,,,,,,,0,7,7,7,,,,,,,,,,,,,,,,,,,,,,,,,4.227648500003852,,,,4.218659600010142,4.227648500003852,4.227648500003852,4.227648500003852,4.517639699974097,4.518318800022826,4.527523899974767,4.527523899974767,4.527523899974767,4.827553600014653,4.827553600014653,4.827553600014653,4.818041499995161,4.527523899974767,4.527523899974767,4.527523899974767,,,,,,,,,,,,,,,,,,,,284399,001,2025-03-20_15h50.51.077,Estimulo_ICE,2024.2.4,59.98436808732614,2025-03-20 15h50.56.580611 -0300,
Estimulo_6,8,8,0,1.9,-1.9,1.9,-1.9,2.2,-2.2,-2.2,2.2,0,0,0,5,,,,,,,,,,,,,,,,,,,,,0,8,8,8,,,,,,,,,,,,,,,,,,,,,,,,,4.827553600014653,,,,4.819019099988509,4.827553600014653,4.827553600014653,4.827553600014653,5.114446700026747,5.11488740000641,5.126579099975061,5.126579099975061,5.126579099975061,5.4258965000044554,5.4258965000044554,5.4258965000044554,5.412455999990925,5.126579099975061,5.126579099975061,5.126579099975061,,,,,,,,,,,,,,,,,,,,284399,001,2025-03-20_15h50.51.077,Estimulo_ICE,2024.2.4,59.98436808732614,2025-03-20 15h50.56.580611 -0300,
Estimulo_6,9,9,0,2,-2,2,-2,2.2,-2.2,-2.2,2.2,0,0,0,5,,,,,,,,,,,,,,,,,,,,,0,9,9,9,,,,,,,,,,,,,,,,,,,,,,,,,5.4258965000044554,,,,5.412889999977779,5.4258965000044554,5.4258965000044554,5.4258965000044554,5.716972999973223,5.717600899981335,5.727308499976061,5.727308499976061,5.727308499976061,6.027289399993606,6.027289399993606,6.027289399993606,6.0173866000259295,5.727308499976061,5.727308499976061,5.727308499976061,,,,,,,,,,,,,,,,,,,,284399,001,2025-03-20_15h50.51.077,Estimulo_ICE,2024.2.4,59.98436808732614,2025-03-20 15h50.56.580611 -0300,
Estimulo_6,10,10,0,2.1,-2.1,2.1,-2.1,2.2,-2.2,-2.2,2.2,0,0,0,5,,,,,,,,,,,,,,,,,,,,,0,10,10,10,,,,,,,,,,,,,,,,,,,,,,,,,6.027289399993606,,,,6.018295900023077,6.027289399993606,6.027289399993606,6.027289399993606,6.31707390001975,6.31770700000925,6.327264100022148,6.327264100022148,6.327264100022148,6.627230299985968,6.627230299985968,6.627230299985968,6.616927099996246,6.327264100022148,6.327264100022148,6.327264100022148,,,,,,,,,,,,,,,,,,,,284399,001,2025-03-20_15h50.51.077,Estimulo_ICE,2024.2.4,59.98436808732614,2025-03-20 15h50.56.580611 -0300,
Estimulo_6,11,11,0,2.2,-2.2,2.2,-2.2,2.2,-2.2,-2.2,2.2,0,0,0,5,,,,,,,,,,,,,,,,,,,,,0,11,11,11,,,,,,,,,,,,,,,,,,,,,,,,,6.627230299985968,,,,6.61784770002123,6.627230299985968,6.627230299985968,6.627230299985968,6.913525799987838,6.91391120001208,6.92633659997955,6.92633659997955,6.92633659997955,7.22585839999374,7.22585839999374,7.22585839999374,7.211869699996896,6.92633659997955,6.92633659997955,6.92633659997955,,,,,,,,,,,,,,,,,,,,284399,001,2025-03-20_15h50.51.077,Estimulo_ICE,2024.2.4,59.98436808732614,2025-03-20 15h50.56.580611 -0300,
Estimulo_6,12,12,0,2.3,-2.3,2.3,-2.3,2.2,-2.2,-2.2,2.2,0,0,0,5,,,,,,,,,,,,,,,,,,,,,0,12,12,12,,,,,,,,,,,,,,,,,,,,,,,,,7.22585839999374,,,,7.212236999999732,7.22585839999374,7.22585839999374,7.22585839999374,7.511693099979311,7.511946899991017,7.525566899974365,7.525566899974365,7.525566899974365,7.826840599998832,7.826840599998832,7.826840599998832,7.815208400017582,7.525566899974365,7.525566899974365,7.525566899974365,,,,,,,,,,,,,,,,,,,,284399,001,2025-03-20_15h50.51.077,Estimulo_ICE,2024.2.4,59.98436808732614,2025-03-20 15h50.56.580611 -0300,
Estimulo_6,13,13,0,2.4,-2.4,2.4,-2.4,2.2,-2.2,-2.2,2.2,0,0,0,5,,,,,,,,,,,,,,,,,,,,,0,13,13,13,,,,,,,,,,,,,,,,,,,,,,,,,7.826840599998832,,,,7.815931799996179,7.826840599998832,7.826840599998832,7.826840599998832,8.11529220000375,8.115806900023017,8.126876400026958,8.126876400026958,8.126876400026958,8.425683800014667,8.425683800014667,8.425683800014667,8.411978100019041,8.126876400026958,8.126876400026958,8.126876400026958,,,,,,,,,,,,,,,,,,,,284399,001,2025-03-20_15h50.51.077,Estimulo_ICE,2024.2.4,59.98436808732614,2025-03-20 15h50.56.580611 -0300,
Estimulo_6,14,14,0,2.5,-2.5,2.5,-2.5,2.2,-2.2,-2.2,2.2,0,0,0,5,,,,,,,,,,,,,,,,,,,,,0,14,14,14,,,,,,,,,,,,,,,,,,,,,,,,,8.425683800014667,,,,8.412369499972556,8.425683800014667,8.425683800014667,8.425683800014667,8.711994200013578,8.712258199986536,8.72597799997311,8.72597799997311,8.72597799997311,9.02742960001342,9.02742960001342,9.02742960001342,9.017224300012458,8.72597799997311,8.72597799997311,8.72597799997311,,,,,,,,,,,,,,,,,,,,284399,001,2025-03-20_15h50.51.077,Estimulo_ICE,2024.2.4,59.98436808732614,2025-03-20 15h50.56.580611 -0300,
Estimulo_6,15,15,0,2.6,-2.6,2.6,-2.6,2.2,-2.2,-2.2,2.2,0,0,0,5,,,,,,,,,,,,,,,,,,,,,0,15,15,15,,,,,,,,,,,,,,,,,,,,,,,,,9.02742960001342,,,,9.018132700002752,9.02742960001342,9.02742960001342,9.02742960001342,9.316892199974973,9.317523000005167,9.327358799986541,9.327358799986541,9.327358799986541,,,,9.611813700001221,9.327358799986541,9.327358799986541,9.327358799986541,,,,,,,,,,,,,,,,,,,,284399,001,2025-03-20_15h50.51.077,Estimulo_ICE,2024.2.4,59.98436808732614,2025-03-20 15h50.56.580611 -0300,
Estimulo_6,16,16,0,2.7,-2.7,2.7,-2.7,2.2,-2.2,-2.2,2.2,0,0,0,5,,,,,,,,,,,,,,,,,,,,,0,16,16,16,,,,,,,,,,,,,,,,,,,,,,,,,9.62586349999765,,,,9.612185999983922,9.62586349999765,9.62586349999765,9.62586349999765,9.911814899998717,9.91206780000357,9.925757199991494,9.925757199991494,9.925757199991494,10.22587259998545,10.22587259998545,10.22587259998545,10.21178279997548,9.925757199991494,9.925757199991494,9.925757199991494,,,,,,,,,,,,,,,,,,,,284399,001,2025-03-20_15h50.51.077,Estimulo_ICE,2024.2.4,59.98436808732614,2025-03-20 15h50.56.580611 -0300,
Estimulo_6,17,17,0,2.8,-2.8,2.8,-2.8,2.2,-2.2,-2.2,2.2,0,0,0,5,,,,,,,,,,,,,,,,,,,,,0,17,17,17,,,,,,,,,,,,,,,,,,,,,,,,,10.22587259998545,,,,10.212149799976032,10.22587259998545,10.22587259998545,10.22587259998545,10.511692599975504,10.511946799990255,10.525835799984634,10.525835799984634,10.525835799984634,10.825899299990851,10.825899299990851,10.825899299990851,10.811885499977507,10.525835799984634,10.525835799984634,10.525835799984634,,,,,,,,,,,,,,,,,,,,284399,001,2025-03-20_15h50.51.077,Estimulo_ICE,2024.2.4,59.98436808732614,2025-03-20 15h50.56.580611 -0300,
Estimulo_6,18,18,0,2.9,-2.9,2.9,-2.9,2.2,-2.2,-2.2,2.2,0,0,0,5,,,,,,,,,,,,,,,,,,,,,0,18,18,18,,,,,,,,,,,,,,,,,,,,,,,,,10.825899299990851,,,,10.812253899988718,10.825899299990851,10.825899299990851,10.825899299990851,11.111886299971957,11.112140299985185,11.125697500014212,11.125697500014212,11.125697500014212,11.427451999974437,11.427451999974437,11.427451999974437,11.412113200000022,11.125697500014212,11.125697500014212,11.125697500014212,,,,,,,,,,,,,,,,,,,,284399,001,2025-03-20_15h50.51.077,Estimulo_ICE,2024.2.4,59.98436808732614,2025-03-20 15h50.56.580611 -0300,
Estimulo_6,19,19,0,3,-3,3,-3,2.2,-2.2,-2.2,2.2,0,0,0,5,,,,,,,,,,,,,,,,,,,,,0,19,19,19,,,,,,,,,,,,,,,,,,,,,,,,,11.427451999974437,,,,11.412469299975783,11.427451999974437,11.427451999974437,11.427451999974437,11.711805599974468,11.712059899989981,11.725831700023264,11.725831700023264,11.725831700023264,12.02585849998286,12.02585849998286,12.02585849998286,12.011769199976698,,,,,,,,,,,,,,,,,,,,,,,284399,001,2025-03-20_15h50.51.077,Estimulo_ICE,2024.2.4,59.98436808732614,2025-03-20 15h50.56.580611 -0300,
Estimulo_6,20,20,0,3.1,-3.1,3.1,-3.1,2.2,-2.2,-2.2,2.2,0,0,0,5,,,,,,,,,,,,,,,,,,,,,0,20,20,20,,,,,,,,,,,,,,,,,,,,,,,,,12.02585849998286,,,,12.012134700024035,12.02585849998286,12.02585849998286,12.02585849998286,12.315448399982415,12.315943800029345,12.326840599998832,12.326840599998832,12.326840599998832,12.62682499998482,12.62682499998482,12.62682499998482,12.61542530002771,12.326840599998832,12.326840599998832,12.326840599998832,,,,,,,,,,,,,,,,,,,,284399,001,2025-03-20_15h50.51.077,Estimulo_ICE,2024.2.4,59.98436808732614,2025-03-20 15h50.56.580611 -0300,
Estimulo_6,21,21,0,3.2,-3.2,3.2,-3.2,2.2,-2.2,-2.2,2.2,0,0,0,5,,,,,,,,,,,,,,,,,,,,,0,21,21,21,,,,,,,,,,,,,,,,,,,,,,,,,12.62682499998482,,,,12.616174899972975,12.62682499998482,12.62682499998482,12.62682499998482,12.915374499978498,12.915891200012993,12.926781999995,12.926781999995,12.926781999995,13.226682799984701,13.226682799984701,13.226682799984701,13.214572100026999,12.926781999995,12.926781999995,12.926781999995,,,,,,,,,,,,,,,,,,,,284399,001,2025-03-20_15h50.51.077,Estimulo_ICE,2024.2.4,59.98436808732614,2025-03-20 15h50.56.580611 -0300,
Estimulo_6,22,22,0,3.3,-3.3,3.3,-3.3,2.2,-2.2,-2.2,2.2,0,0,0,5,,,,,,,,,,,,,,,,,,,,,0,22,22,22,,,,,,,,,,,,,,,,,,,,,,,,,13.226682799984701,,,,13.215316099987831,13.226682799984701,13.226682799984701,13.226682799984701,13.515415799978655,13.515911999973468,13.526751999976113,13.526751999976113,13.526751999976113,13.826918400009163,13.826918400009163,13.826918400009163,13.815442599996459,13.526751999976113,13.526751999976113,13.526751999976113,,,,,,,,,,,,,,,,,,,,284399,001,2025-03-20_15h50.51.077,Estimulo_ICE,2024.2.4,59.98436808732614,2025-03-20 15h50.56.580611 -0300,
Estimulo_6,23,23,0,3.4,-3.4,3.4,-3.4,2.2,-2.2,-2.2,2.2,0,0,0,5,,,,,,,,,,,,,,,,,,,,,0,23,23,23,,,,,,,,,,,,,,,,,,,,,,,,,13.826918400009163,,,,13.816187700023875,13.826918400009163,13.826918400009163,13.826918400009163,14.115321299992502,14.115839599980973,14.126898700022139,14.126898700022139,14.126898700022139,14.426963099977002,14.426963099977002,14.426963099977002,14.415421499987133,14.126898700022139,14.126898700022139,14.126898700022139,,,,,,,,,,,,,,,,,,,,284399,001,2025-03-20_15h50.51.077,Estimulo_ICE,2024.2.4,59.98436808732614,2025-03-20 15h50.56.580611 -0300,
Estimulo_6,24,24,0,3.5,-3.5,3.5,-3.5,2.2,-2.2,-2.2,2.2,0,0,0,5,,,,,,,,,,,,,,,,,,,,,0,24,24,24,,,,,,,,,,,,,,,,,,,,,,,,,14.426963099977002,,,,14.416173000005074,14.426963099977002,14.426963099977002,14.426963099977002,14.715319700015243,14.715814399998635,14.726768900000025,14.726768900000025,14.726768900000025,15.026766899973154,15.026766899973154,15.026766899973154,15.015265900001395,14.726768900000025,14.726768900000025,14.726768900000025,,,,,,,,,,,,,,,,,,,,284399,001,2025-03-20_15h50.51.077,Estimulo_ICE,2024.2.4,59.98436808732614,2025-03-20 15h50.56.580611 -0300,
Estimulo_6,25,25,0,3.6,-3.6,3.6,-3.6,2.2,-2.2,-2.2,2.2,0,0,0,5,,,,,,,,,,,,,,,,,,,,,0,25,25,25,,,,,,,,,,,,,,,,,,,,,,,,,15.026766899973154,,,,15.016016000008676,15.026766899973154,15.026766899973154,15.026766899973154,15.315505900012795,15.316023399995174,15.326857100008056,15.326857100008056,15.326857100008056,15.626861400029156,15.626861400029156,15.626861400029156,15.615342699980829,15.326857100008056,15.326857100008056,15.326857100008056,,,,,,,,,,,,,,,,,,,,284399,001,2025-03-20_15h50.51.077,Estimulo_ICE,2024.2.4,59.98436808732614,2025-03-20 15h50.56.580611 -0300,
Estimulo_6,26,26,0,3.7,-3.7,3.7,-3.7,2.2,-2.2,-2.2,2.2,0,0,0,5,,,,,,,,,,,,,,,,,,,,,0,26,26,26,,,,,,,,,,,,,,,,,,,,,,,,,15.626861400029156,,,,15.616088300012052,15.626861400029156,15.626861400029156,15.626861400029156,15.915068299975246,15.915582199988421,15.926757299981546,15.926757299981546,15.926757299981546,,,,16.211462099978235,15.926757299981546,15.926757299981546,15.926757299981546,,,,,,,,,,,,,,,,,,,,284399,001,2025-03-20_15h50.51.077,Estimulo_ICE,2024.2.4,59.98436808732614,2025-03-20 15h50.56.580611 -0300,
Estimulo_6,27,27,0,3.8,-3.8,3.8,-3.8,2.2,-2.2,-2.2,2.2,0,0,0,5,,,,,,,,,,,,,,,,,,,,,0,27,27,27,,,,,,,,,,,,,,,,,,,,,,,,,16.225802599976305,,,,16.21179769997252,16.225802599976305,16.225802599976305,16.225802599976305,16.51174919999903,16.51200119999703,16.525809600017965,16.525809600017965,16.525809600017965,16.82681679999223,16.82681679999223,16.82681679999223,16.815321900008712,16.525809600017965,16.525809600017965,16.525809600017965,,,,,,,,,,,,,,,,,,,,284399,001,2025-03-20_15h50.51.077,Estimulo_ICE,2024.2.4,59.98436808732614,2025-03-20 15h50.56.580611 -0300,
Estimulo_6,28,28,0,3.9,-3.9,3.9,-3.9,2.2,-2.2,-2.2,2.2,0,0,0,5,,,,,,,,,,,,,,,,,,,,,0,28,28,28,,,,,,,,,,,,,,,,,,,,,,,,,16.82681679999223,,,,16.816068099986296,16.82681679999223,16.82681679999223,16.82681679999223,17.11519819998648,17.115716099971905,17.126843000005465,17.126843000005465,17.126843000005465,17.426851399999578,17.426851399999578,17.426851399999578,17.415923100023065,17.126843000005465,17.126843000005465,17.126843000005465,,,,,,,,,,,,,,,,,,,,284399,001,2025-03-20_15h50.51.077,Estimulo_ICE,2024.2.4,59.98436808732614,2025-03-20 15h50.56.580611 -0300,
Estimulo_6,29,29,0,4,-4,4,-4,2.2,-2.2,-2.2,2.2,0,0,0,5,,,,,,,,,,,,,,,,,,,,,0,29,29,29,,,,,,,,,,,,,,,,,,,,,,,,,17.426851399999578,,,,17.416723700007424,17.426851399999578,17.426851399999578,17.426851399999578,17.715670400008094,17.716221100010443,17.72686860000249,17.72686860000249,17.72686860000249,18.02680400002282,18.02680400002282,18.02680400002282,18.015853599994443,17.72686860000249,17.72686860000249,17.72686860000249,,,,,,,,,,,,,,,,,,,,284399,001,2025-03-20_15h50.51.077,Estimulo_ICE,2024.2.4,59.98436808732614,2025-03-20 15h50.56.580611 -0300,
Estimulo_6,30,30,0,4.1,-4.1,4.1,-4.1,2.2,-2.2,-2.2,2.2,0,0,0,5,,,,,,,,,,,,,,,,,,,,,0,30,30,30,,,,,,,,,,,,,,,,,,,,,,,,,18.02680400002282,,,,18.016649500001222,18.02680400002282,18.02680400002282,18.02680400002282,18.31579199997941,18.316340400022455,18.32678709999891,18.32678709999891,18.32678709999891,18.627149500011,18.627149500011,18.627149500011,18.616215599991847,18.32678709999891,18.32678709999891,18.32678709999891,,,,,,,,,,,,,,,,,,,,284399,001,2025-03-20_15h50.51.077,Estimulo_ICE,2024.2.4,59.98436808732614,2025-03-20 15h50.56.580611 -0300,
Estimulo_6,31,31,0,4.2,-4.2,4.2,-4.2,2.2,-2.2,-2.2,2.2,0,0,0,5,,,,,,,,,,,,,,,,,,,,,0,31,31,31,,,,,,,,,,,,,,,,,,,,,,,,,18.627149500011,,,,18.617067100014538,18.627149500011,18.627149500011,18.627149500011,18.916193299985025,18.91677760001039,18.92700630001491,18.92700630001491,18.92700630001491,,,,19.212547399976756,18.92700630001491,18.92700630001491,18.92700630001491,,,,,,,,,,,,,,,,,,,,284399,001,2025-03-20_15h50.51.077,Estimulo_ICE,2024.2.4,59.98436808732614,2025-03-20 15h50.56.580611 -0300,
Estimulo_6,32,32,0,4.3,-4.3,4.3,-4.3,2.2,-2.2,-2.2,2.2,0,0,0,5,,,,,,,,,,,,,,,,,,,,,0,32,32,32,,,,,,,,,,,,,,,,,,,,,,,,,19.22600219998276,,,,19.213031999999657,19.22600219998276,19.22600219998276,19.22600219998276,19.516275600006338,19.516865800018422,19.527098299993668,19.527098299993668,19.527098299993668,19.826895800011698,19.826895800011698,19.826895800011698,19.81632909999462,19.527098299993668,19.527098299993668,19.527098299993668,,,,,,,,,,,,,,,,,,,,284399,001,2025-03-20_15h50.51.077,Estimulo_ICE,2024.2.4,59.98436808732614,2025-03-20 15h50.56.580611 -0300,
Estimulo_6,33,33,0,4.4,-4.4,4.4,-4.4,2.2,-2.2,-2.2,2.2,0,0,0,5,,,,,,,,,,,,,,,,,,,,,0,33,33,33,,,,,,,,,,,,,,,,,,,,,,,,,19.826895800011698,,,,19.817178800003603,19.826895800011698,19.826895800011698,19.826895800011698,20.116100799990818,20.116684000007808,20.127166200021747,20.127166200021747,20.127166200021747,,,,20.411750100029167,20.127166200021747,20.127166200021747,20.127166200021747,,,,,,,,,,,,,,,,,,,,284399,001,2025-03-20_15h50.51.077,Estimulo_ICE,2024.2.4,59.98436808732614,2025-03-20 15h50.56.580611 -0300,
Estimulo_6,0,0,0,,,,,,,,,0,0,0,5,,,,,,,,,,,,,,,,,,,,,,,,,,,,,,,,,,,,,,,,,,,,,,,,,,,,,,,,,,,,,,,,,,,,,20.493138800025918,20.508722300000954,21.928045700013172,,,,,,,,,,,,,,,,,284399,001,2025-03-20_15h50.51.077,Estimulo_ICE,2024.2.4,59.98436808732614,2025-03-20 15h50.56.580611 -0300,
Estimulo_1,0,0,0,4.4,-4.4,4.4,-4.4,2.2,-2.2,-2.2,2.2,0,1,1,0,0,0,0,0,,,,,,,,,,,,,,,,,,,,,,,,,,,,,,,,,,,,,,,,,,,,,21.95854080002755,,21.928162000025623,21.928517399996053,,,,,,,,,,,,,,,,,,,,21.939909200009424,21.95854080002755,21.95854080002755,21.95854080002755,22.244701299990993,22.24492399999872,22.258883000002243,22.258883000002243,22.258883000002243,22.544711700000335,,,,,,,284399,001,2025-03-20_15h50.51.077,Estimulo_ICE,2024.2.4,59.98436808732614,2025-03-20 15h50.56.580611 -0300,
Estimulo_1,1,1,0,4.3,-4.3,4.3,-4.3,2.2,-2.2,-2.2,2.2,0,1,1,0,0,1,1,1,,,,,,,,,,,,,,,,,,,,,,,,,,,,,,,,,,,,,,,,,,,,,22.559155999973882,,,,,,,,,,,,,,,,,,,,,,,22.545071400003508,22.559155999973882,22.559155999973882,22.559155999973882,22.84465550002642,22.844892900029663,22.859116400009952,22.859116400009952,22.859116400009952,23.12900900002569,,,,,,,284399,001,2025-03-20_15h50.51.077,Estimulo_ICE,2024.2.4,59.98436808732614,2025-03-20 15h50.56.580611 -0300,
Estimulo_1,2,2,0,4.2,-4.2,4.2,-4.2,2.2,-2.2,-2.2,2.2,0,1,1,0,0,2,2,2,,,,,,,,,,,,,,,,,,,,,,,,,,,,,,,,,,,,,,,,,,,,,23.142439000017475,,,,,,,,,,,,,,,,,,,,,,,23.12948060000781,23.142439000017475,23.142439000017475,23.142439000017475,23.42840640002396,23.42866109998431,23.442426200024784,23.442426200024784,23.442426200024784,23.728339500026777,23.442426200024784,23.442426200024784,23.442426200024784,23.742312900023535,23.742312900023535,23.742312900023535,284399,001,2025-03-20_15h50.51.077,Estimulo_ICE,2024.2.4,59.98436808732614,2025-03-20 15h50.56.580611 -0300,
Estimulo_1,3,3,0,4.1,-4.1,4.1,-4.1,2.2,-2.2,-2.2,2.2,0,1,1,0,0,3,3,3,,,,,,,,,,,,,,,,,,,,,,,,,,,,,,,,,,,,,,,,,,,,,23.742312900023535,,,,,,,,,,,,,,,,,,,,,,,23.72871270001633,23.742312900023535,23.742312900023535,23.742312900023535,24.028311799978837,24.02856459998293,24.042356199992355,24.042356199992355,24.042356199992355,24.328246199991554,24.042356199992355,24.042356199992355,24.042356199992355,24.34239870001329,24.34239870001329,24.34239870001329,284399,001,2025-03-20_15h50.51.077,Estimulo_ICE,2024.2.4,59.98436808732614,2025-03-20 15h50.56.580611 -0300,
Estimulo_1,4,4,0,4,-4,4,-4,2.2,-2.2,-2.2,2.2,0,1,1,0,0,4,4,4,,,,,,,,,,,,,,,,,,,,,,,,,,,,,,,,,,,,,,,,,,,,,24.34239870001329,,,,,,,,,,,,,,,,,,,,,,,24.328623500012327,24.34239870001329,24.34239870001329,24.34239870001329,24.62827180000022,24.628527800028678,24.64247720001731,24.64247720001731,24.64247720001731,24.928302399988752,24.64247720001731,24.64247720001731,24.64247720001731,24.94241570000304,24.94241570000304,24.94241570000304,284399,001,2025-03-20_15h50.51.077,Estimulo_ICE,2024.2.4,59.98436808732614,2025-03-20 15h50.56.580611 -0300,
Estimulo_1,5,5,0,3.9,-3.9,3.9,-3.9,2.2,-2.2,-2.2,2.2,0,1,1,0,0,5,5,5,,,,,,,,,,,,,,,,,,,,,,,,,,,,,,,,,,,,,,,,,,,,,24.94241570000304,,,,,,,,,,,,,,,,,,,,,,,24.92867789999582,24.94241570000304,24.94241570000304,24.94241570000304,25.228886400000192,25.229120799980592,25.242394600005355,25.242394600005355,25.242394600005355,25.52819709997857,,,,25.542431999987457,25.542431999987457,25.542431999987457,284399,001,2025-03-20_15h50.51.077,Estimulo_ICE,2024.2.4,59.98436808732614,2025-03-20 15h50.56.580611 -0300,
Estimulo_1,6,6,0,3.8,-3.8,3.8,-3.8,2.2,-2.2,-2.2,2.2,0,1,1,0,0,6,6,6,,,,,,,,,,,,,,,,,,,,,,,,,,,,,,,,,,,,,,,,,,,,,25.542431999987457,,,,,,,,,,,,,,,,,,,,,,,25.528570899972692,25.542431999987457,25.542431999987457,25.542431999987457,25.82809000002453,25.82834449998336,25.842496700002812,25.842496700002812,25.842496700002812,26.1291095999768,25.842496700002812,25.842496700002812,25.842496700002812,,,,284399,001,2025-03-20_15h50.51.077,Estimulo_ICE,2024.2.4,59.98436808732614,2025-03-20 15h50.56.580611 -0300,
Estimulo_1,7,7,0,3.7,-3.7,3.7,-3.7,2.2,-2.2,-2.2,2.2,0,1,1,0,0,7,7,7,,,,,,,,,,,,,,,,,,,,,,,,,,,,,,,,,,,,,,,,,,,,,26.144503900024574,,,,,,,,,,,,,,,,,,,,,,,26.129642500018235,26.144503900024574,26.144503900024574,26.144503900024574,26.431062699994072,26.431528899993282,26.443470300000627,26.443470300000627,26.443470300000627,26.73073299997486,,,,,,,284399,001,2025-03-20_15h50.51.077,Estimulo_ICE,2024.2.4,59.98436808732614,2025-03-20 15h50.56.580611 -0300,
Estimulo_1,8,8,0,3.6,-3.6,3.6,-3.6,2.2,-2.2,-2.2,2.2,0,1,1,0,0,8,8,8,,,,,,,,,,,,,,,,,,,,,,,,,,,,,,,,,,,,,,,,,,,,,26.743378899991512,,,,,,,,,,,,,,,,,,,,,,,26.731421999982558,26.743378899991512,26.743378899991512,26.743378899991512,27.03100880002603,27.03147769998759,27.043460500019137,27.043460500019137,27.043460500019137,27.330856500018854,,,,,,,284399,001,2025-03-20_15h50.51.077,Estimulo_ICE,2024.2.4,59.98436808732614,2025-03-20 15h50.56.580611 -0300,
Estimulo_1,9,9,0,3.5,-3.5,3.5,-3.5,2.2,-2.2,-2.2,2.2,0,1,1,0,0,9,9,9,,,,,,,,,,,,,,,,,,,,,,,,,,,,,,,,,,,,,,,,,,,,,27.34312009997666,,,,,,,,,,,,,,,,,,,,,,,27.331545800028834,27.34312009997666,27.34312009997666,27.34312009997666,27.631047100003343,27.631503999989945,27.643201099999715,27.643201099999715,27.643201099999715,27.930839299981017,,,,,,,284399,001,2025-03-20_15h50.51.077,Estimulo_ICE,2024.2.4,59.98436808732614,2025-03-20 15h50.56.580611 -0300,
Estimulo_1,10,10,0,3.39999999999999,-3.39999999999999,3.39999999999999,-3.39999999999999,2.2,-2.2,-2.2,2.2,0,1,1,0,0,10,10,10,,,,,,,,,,,,,,,,,,,,,,,,,,,,,,,,,,,,,,,,,,,,,27.943269499985036,,,,,,,,,,,,,,,,,,,,,,,27.93153350002831,27.943269499985036,27.943269499985036,27.943269499985036,28.231050100002903,28.231522499991115,28.243190700013656,28.243190700013656,28.243190700013656,28.530842999985907,,,,,,,284399,001,2025-03-20_15h50.51.077,Estimulo_ICE,2024.2.4,59.98436808732614,2025-03-20 15h50.56.580611 -0300,
Estimulo_1,11,11,0,3.29999999999999,-3.29999999999999,3.29999999999999,-3.29999999999999,2.2,-2.2,-2.2,2.2,0,1,1,0,0,11,11,11,,,,,,,,,,,,,,,,,,,,,,,,,,,,,,,,,,,,,,,,,,,,,28.54310050001368,,,,,,,,,,,,,,,,,,,,,,,28.531537499977276,28.54310050001368,28.54310050001368,28.54310050001368,28.83073649997823,28.83119609998539,28.843055900011677,28.843055900011677,28.843055900011677,29.13327519997256,,,,,,,284399,001,2025-03-20_15h50.51.077,Estimulo_ICE,2024.2.4,59.98436808732614,2025-03-20 15h50.56.580611 -0300,
Estimulo_1,12,12,0,3.19999999999999,-3.19999999999999,3.19999999999999,-3.19999999999999,2.2,-2.2,-2.2,2.2,0,1,1,0,0,12,12,12,,,,,,,,,,,,,,,,,,,,,,,,,,,,,,,,,,,,,,,,,,,,,29.142959900025744,,,,,,,,,,,,,,,,,,,,,,,29.134321800025646,29.142959900025744,29.142959900025744,29.142959900025744,29.431242200022098,29.43174299999373,29.443567399983294,29.443567399983294,29.443567399983294,29.73123370000394,,,,,,,284399,001,2025-03-20_15h50.51.077,Estimulo_ICE,2024.2.4,59.98436808732614,2025-03-20 15h50.56.580611 -0300,
Estimulo_1,13,13,0,3.09999999999999,-3.09999999999999,3.09999999999999,-3.09999999999999,2.2,-2.2,-2.2,2.2,0,1,1,0,0,13,13,13,,,,,,,,,,,,,,,,,,,,,,,,,,,,,,,,,,,,,,,,,,,,,29.743368899973575,,,,,,,,,,,,,,,,,,,,,,,29.731966599996667,29.743368899973575,29.743368899973575,29.743368899973575,30.031391599972267,30.031874099979177,30.043304399994668,30.043304399994668,30.043304399994668,30.33118939999258,,,,,,,284399,001,2025-03-20_15h50.51.077,Estimulo_ICE,2024.2.4,59.98436808732614,2025-03-20 15h50.56.580611 -0300,
Estimulo_1,14,14,0,2.99999999999999,-2.99999999999999,2.99999999999999,-2.99999999999999,2.2,-2.2,-2.2,2.2,0,1,1,0,0,14,14,14,,,,,,,,,,,,,,,,,,,,,,,,,,,,,,,,,,,,,,,,,,,,,30.343394899973646,,,,,,,,,,,,,,,,,,,,,,,30.331919500022195,30.343394899973646,30.343394899973646,30.343394899973646,30.63267800002359,30.63327190000564,30.643970499979332,30.643970499979332,30.643970499979332,30.932739500014577,,,,,,,284399,001,2025-03-20_15h50.51.077,Estimulo_ICE,2024.2.4,59.98436808732614,2025-03-20 15h50.56.580611 -0300,
Estimulo_1,15,15,0,2.89999999999999,-2.89999999999999,2.89999999999999,-2.89999999999999,2.2,-2.2,-2.2,2.2,0,1,1,0,0,15,15,15,,,,,,,,,,,,,,,,,,,,,,,,,,,,,,,,,,,,,,,,,,,,,30.942957499995828,,,,,,,,,,,,,,,,,,,,,,,30.933613099972717,30.942957499995828,30.942957499995828,30.942957499995828,31.228588500001933,31.22887480002828,31.242489799973555,31.242489799973555,31.242489799973555,31.53096629999345,31.242489799973555,31.242489799973555,31.242489799973555,,,,284399,001,2025-03-20_15h50.51.077,Estimulo_ICE,2024.2.4,59.98436808732614,2025-03-20 15h50.56.580611 -0300,
Estimulo_1,16,16,0,2.79999999999999,-2.79999999999999,2.79999999999999,-2.79999999999999,2.2,-2.2,-2.2,2.2,0,1,1,0,0,16,16,16,,,,,,,,,,,,,,,,,,,,,,,,,,,,,,,,,,,,,,,,,,,,,31.54337149998173,,,,,,,,,,,,,,,,,,,,,,,31.531660599983297,31.54337149998173,31.54337149998173,31.54337149998173,31.830805599980522,31.83126040000934,31.843324700021185,31.843324700021185,31.843324700021185,32.133508200000506,,,,,,,284399,001,2025-03-20_15h50.51.077,Estimulo_ICE,2024.2.4,59.98436808732614,2025-03-20 15h50.56.580611 -0300,
Estimulo_1,17,17,0,2.69999999999999,-2.69999999999999,2.69999999999999,-2.69999999999999,2.2,-2.2,-2.2,2.2,0,1,1,0,0,17,17,17,,,,,,,,,,,,,,,,,,,,,,,,,,,,,,,,,,,,,,,,,,,,,32.14222099998733,,,,,,,,,,,,,,,,,,,,,,,32.13456580002094,32.14222099998733,32.14222099998733,32.14222099998733,32.42859760002466,32.428858699975535,32.44230669998797,32.44230669998797,32.44230669998797,32.7282908000052,32.44230669998797,32.44230669998797,32.44230669998797,32.74242409999715,32.74242409999715,32.74242409999715,284399,001,2025-03-20_15h50.51.077,Estimulo_ICE,2024.2.4,59.98436808732614,2025-03-20 15h50.56.580611 -0300,
Estimulo_1,18,18,0,2.59999999999999,-2.59999999999999,2.59999999999999,-2.59999999999999,2.2,-2.2,-2.2,2.2,0,1,1,0,0,18,18,18,,,,,,,,,,,,,,,,,,,,,,,,,,,,,,,,,,,,,,,,,,,,,32.74242409999715,,,,,,,,,,,,,,,,,,,,,,,32.728680500003975,32.74242409999715,32.74242409999715,32.74242409999715,33.03148940001847,33.031999099999666,33.04357819998404,33.04357819998404,33.04357819998404,33.33151699998416,,,,,,,284399,001,2025-03-20_15h50.51.077,Estimulo_ICE,2024.2.4,59.98436808732614,2025-03-20 15h50.56.580611 -0300,
Estimulo_1,19,19,0,2.49999999999999,-2.49999999999999,2.49999999999999,-2.49999999999999,2.2,-2.2,-2.2,2.2,0,1,1,0,0,19,19,19,,,,,,,,,,,,,,,,,,,,,,,,,,,,,,,,,,,,,,,,,,,,,33.343535499996506,,,,,,,,,,,,,,,,,,,,,,,33.33229190000566,33.343535499996506,33.343535499996506,33.343535499996506,33.631726899999194,33.632241900020745,33.64346769999247,33.64346769999247,33.64346769999247,33.93153200001689,,,,,,,284399,001,2025-03-20_15h50.51.077,Estimulo_ICE,2024.2.4,59.98436808732614,2025-03-20 15h50.56.580611 -0300,
Estimulo_1,20,20,0,2.39999999999999,-2.39999999999999,2.39999999999999,-2.39999999999999,2.2,-2.2,-2.2,2.2,0,1,1,0,0,20,20,20,,,,,,,,,,,,,,,,,,,,,,,,,,,,,,,,,,,,,,,,,,,,,33.943513999984134,,,,,,,,,,,,,,,,,,,,,,,33.93229730002349,33.943513999984134,33.943513999984134,33.943513999984134,34.24469770002179,34.24496250000084,34.25910000002477,34.25910000002477,34.25910000002477,34.53251539997291,,,,,,,284399,001,2025-03-20_15h50.51.077,Estimulo_ICE,2024.2.4,59.98436808732614,2025-03-20 15h50.56.580611 -0300,
Estimulo_1,21,21,0,2.29999999999999,-2.29999999999999,2.29999999999999,-2.29999999999999,2.2,-2.2,-2.2,2.2,0,1,1,0,0,21,21,21,,,,,,,,,,,,,,,,,,,,,,,,,,,,,,,,,,,,,,,,,,,,,34.5439368999796,,,,,,,,,,,,,,,,,,,,,,,34.53339459997369,34.5439368999796,34.5439368999796,34.5439368999796,34.833110100007616,34.8336888999911,34.84374460001709,34.84374460001709,34.84374460001709,35.13624419999542,,,,,,,284399,001,2025-03-20_15h50.51.077,Estimulo_ICE,2024.2.4,59.98436808732614,2025-03-20 15h50.56.580611 -0300,
Estimulo_1,22,22,0,2.19999999999999,-2.19999999999999,2.19999999999999,-2.19999999999999,2.2,-2.2,-2.2,2.2,0,1,1,0,0,22,22,22,,,,,,,,,,,,,,,,,,,,,,,,,,,,,,,,,,,,,,,,,,,,,35.15874689997872,,,,,,,,,,,,,,,,,,,,,,,35.13760189997265,35.15874689997872,35.15874689997872,35.15874689997872,35.44470769999316,35.44495700002881,35.45900640002219,35.45900640002219,35.45900640002219,35.74467300000833,,,,,,,284399,001,2025-03-20_15h50.51.077,Estimulo_ICE,2024.2.4,59.98436808732614,2025-03-20 15h50.56.580611 -0300,
Estimulo_1,23,23,0,2.09999999999999,-2.09999999999999,2.09999999999999,-2.09999999999999,2.2,-2.2,-2.2,2.2,0,1,1,0,0,23,23,23,,,,,,,,,,,,,,,,,,,,,,,,,,,,,,,,,,,,,,,,,,,,,35.759067700011656,,,,,,,,,,,,,,,,,,,,,,,35.74504060001345,35.759067700011656,35.759067700011656,35.759067700011656,36.044681300001685,36.04493009997532,36.059029199997894,36.059029199997894,36.059029199997894,36.34464820002904,,,,,,,284399,001,2025-03-20_15h50.51.077,Estimulo_ICE,2024.2.4,59.98436808732614,2025-03-20 15h50.56.580611 -0300,
Estimulo_1,24,24,0,1.99999999999999,-1.99999999999999,1.99999999999999,-1.99999999999999,2.2,-2.2,-2.2,2.2,0,1,1,0,0,24,24,24,,,,,,,,,,,,,,,,,,,,,,,,,,,,,,,,,,,,,,,,,,,,,36.35882309998851,,,,,,,,,,,,,,,,,,,,,,,36.34501300001284,36.35882309998851,36.35882309998851,36.35882309998851,36.64461720001418,36.644862000015564,36.65904130000854,36.65904130000854,36.65904130000854,36.944627700024284,,,,,,,284399,001,2025-03-20_15h50.51.077,Estimulo_ICE,2024.2.4,59.98436808732614,2025-03-20 15h50.56.580611 -0300,
Estimulo_1,25,25,0,1.89999999999999,-1.89999999999999,1.89999999999999,-1.89999999999999,2.2,-2.2,-2.2,2.2,0,1,1,0,0,25,25,25,,,,,,,,,,,,,,,,,,,,,,,,,,,,,,,,,,,,,,,,,,,,,36.959009399986826,,,,,,,,,,,,,,,,,,,,,,,36.944989899988286,36.959009399986826,36.959009399986826,36.959009399986826,37.24465800001053,37.244908900000155,37.258999400015455,37.258999400015455,37.258999400015455,37.54459300002782,,,,,,,284399,001,2025-03-20_15h50.51.077,Estimulo_ICE,2024.2.4,59.98436808732614,2025-03-20 15h50.56.580611 -0300,
Estimulo_1,26,26,0,1.79999999999999,-1.79999999999999,1.79999999999999,-1.79999999999999,2.2,-2.2,-2.2,2.2,0,1,1,0,0,26,26,26,,,,,,,,,,,,,,,,,,,,,,,,,,,,,,,,,,,,,,,,,,,,,37.55900940002175,,,,,,,,,,,,,,,,,,,,,,,37.54495720000705,37.55900940002175,37.55900940002175,37.55900940002175,37.844624800025485,37.84486840001773,37.85905540001113,37.85905540001113,37.85905540001113,38.129188299993984,,,,,,,284399,001,2025-03-20_15h50.51.077,Estimulo_ICE,2024.2.4,59.98436808732614,2025-03-20 15h50.56.580611 -0300,
Estimulo_1,27,27,0,1.69999999999999,-1.69999999999999,1.69999999999999,-1.69999999999999,2.2,-2.2,-2.2,2.2,0,1,1,0,0,27,27,27,,,,,,,,,,,,,,,,,,,,,,,,,,,,,,,,,,,,,,,,,,,,,38.14245799998753,,,,,,,,,,,,,,,,,,,,,,,38.12973410001723,38.14245799998753,38.14245799998753,38.14245799998753,38.42832960002124,38.428589800023474,38.44235480000498,38.44235480000498,38.44235480000498,38.72833140002331,38.44235480000498,38.44235480000498,38.44235480000498,38.742230399977416,38.742230399977416,38.742230399977416,284399,001,2025-03-20_15h50.51.077,Estimulo_ICE,2024.2.4,59.98436808732614,2025-03-20 15h50.56.580611 -0300,
Estimulo_1,28,28,0,1.59999999999999,-1.59999999999999,1.59999999999999,-1.59999999999999,2.2,-2.2,-2.2,2.2,0,1,1,0,0,28,28,28,,,,,,,,,,,,,,,,,,,,,,,,,,,,,,,,,,,,,,,,,,,,,38.742230399977416,,,,,,,,,,,,,,,,,,,,,,,38.728716999990866,38.742230399977416,38.742230399977416,38.742230399977416,39.0282303999993,39.02849050000077,39.04233889997704,39.04233889997704,39.04233889997704,39.3283443999826,39.04233889997704,39.04233889997704,39.04233889997704,39.342362699972,39.342362699972,39.342362699972,284399,001,2025-03-20_15h50.51.077,Estimulo_ICE,2024.2.4,59.98436808732614,2025-03-20 15h50.56.580611 -0300,
Estimulo_1,29,29,0,1.49999999999999,-1.49999999999998,1.49999999999999,-1.49999999999998,2.2,-2.2,-2.2,2.2,0,1,1,0,0,29,29,29,,,,,,,,,,,,,,,,,,,,,,,,,,,,,,,,,,,,,,,,,,,,,39.342362699972,,,,,,,,,,,,,,,,,,,,,,,39.32873050001217,39.342362699972,39.342362699972,39.342362699972,39.62844469997799,39.628703200025484,39.64232959999936,39.64232959999936,39.64232959999936,39.92844170000171,39.64232959999936,39.64232959999936,39.64232959999936,39.94229560001986,39.94229560001986,39.94229560001986,284399,001,2025-03-20_15h50.51.077,Estimulo_ICE,2024.2.4,59.98436808732614,2025-03-20 15h50.56.580611 -0300,
Estimulo_1,30,30,0,1.39999999999999,-1.39999999999998,1.39999999999999,-1.39999999999998,2.2,-2.2,-2.2,2.2,0,1,1,0,0,30,30,30,,,,,,,,,,,,,,,,,,,,,,,,,,,,,,,,,,,,,,,,,,,,,39.94229560001986,,,,,,,,,,,,,,,,,,,,,,,39.92882540001301,39.94229560001986,39.94229560001986,39.94229560001986,40.23194249998778,40.232490100024734,40.24366340000415,40.24366340000415,40.24366340000415,40.53224520001095,,,,,,,284399,001,2025-03-20_15h50.51.077,Estimulo_ICE,2024.2.4,59.98436808732614,2025-03-20 15h50.56.580611 -0300,
Estimulo_1,31,31,0,1.29999999999999,-1.29999999999998,1.29999999999999,-1.29999999999998,2.2,-2.2,-2.2,2.2,0,1,1,0,0,31,31,31,,,,,,,,,,,,,,,,,,,,,,,,,,,,,,,,,,,,,,,,,,,,,40.54356680001365,,,,,,,,,,,,,,,,,,,,,,,40.53306180000072,40.54356680001365,40.54356680001365,40.54356680001365,40.83212729997467,40.83266800001729,40.843553700018674,40.843553700018674,40.843553700018674,41.12912769999821,,,,,,,284399,001,2025-03-20_15h50.51.077,Estimulo_ICE,2024.2.4,59.98436808732614,2025-03-20 15h50.56.580611 -0300,
Estimulo_1,32,32,0,1.19999999999999,-1.19999999999998,1.19999999999999,-1.19999999999998,2.2,-2.2,-2.2,2.2,0,1,1,0,0,32,32,32,,,,,,,,,,,,,,,,,,,,,,,,,,,,,,,,,,,,,,,,,,,,,41.14258340001106,,,,,,,,,,,,,,,,,,,,,,,41.12964589998592,41.14258340001106,41.14258340001106,41.14258340001106,41.42807070002891,41.42832409997936,41.44231090001995,41.44231090001995,41.44231090001995,41.7282868999755,41.44231090001995,41.44231090001995,41.44231090001995,41.742321000027005,41.742321000027005,41.742321000027005,284399,001,2025-03-20_15h50.51.077,Estimulo_ICE,2024.2.4,59.98436808732614,2025-03-20 15h50.56.580611 -0300,
Estimulo_1,33,33,0,1.09999999999999,-1.09999999999998,1.09999999999999,-1.09999999999998,2.2,-2.2,-2.2,2.2,0,1,1,0,0,33,33,33,,,,,,,,,,,,,,,,,,,,,,,,,,,,,,,,,,,,,,,,,,,,,41.742321000027005,,,,,,,,,,,,,,,,,,,,,,,41.72866199997952,41.742321000027005,41.742321000027005,41.742321000027005,42.02830409997841,42.02855749998707,42.04232740000589,42.04232740000589,42.04232740000589,42.32834950002143,42.04232740000589,42.04232740000589,42.04232740000589,42.391839599993546,42.391839599993546,42.391839599993546,284399,001,2025-03-20_15h50.51.077,Estimulo_ICE,2024.2.4,59.98436808732614,2025-03-20 15h50.56.580611 -0300,
Estimulo_1,0,0,0,4.4,-4.4,4.4,-4.4,2.2,-2.2,-2.2,2.2,0,1,1,0,,,,,,,,,,,,,,,,,0,0,0,0,,,,,,,,,,,,,,,,,,,,,,,,,,,,,42.391839599993546,,,,42.38030780002009,42.391839599993546,42.391839599993546,42.391839599993546,42.62793860002421,42.62819529999979,42.6423075000057,42.6423075000057,42.6423075000057,42.94229640002595,42.94229640002595,42.94229640002595,42.92817530001048,,,,,,,,,,,,,,,,,,,,,,,284399,001,2025-03-20_15h50.51.077,Estimulo_ICE,2024.2.4,59.98436808732614,2025-03-20 15h50.56.580611 -0300,
Estimulo_1,1,1,0,4.3,-4.3,4.3,-4.3,2.2,-2.2,-2.2,2.2,0,1,1,0,,,,,,,,,,,,,,,,,0,1,1,1,,,,,,,,,,,,,,,,,,,,,,,,,,,,,42.94229640002595,,,,42.928553299978375,42.94229640002595,42.94229640002595,42.94229640002595,43.2333383000223,43.23398299998371,43.24301039997954,43.24301039997954,43.24301039997954,43.54244629997993,43.54244629997993,43.54244629997993,43.5286277999985,,,,,,,,,,,,,,,,,,,,,,,284399,001,2025-03-20_15h50.51.077,Estimulo_ICE,2024.2.4,59.98436808732614,2025-03-20 15h50.56.580611 -0300,
Estimulo_1,2,2,0,4.2,-4.2,4.2,-4.2,2.2,-2.2,-2.2,2.2,0,1,1,0,,,,,,,,,,,,,,,,,0,2,2,2,,,,,,,,,,,,,,,,,,,,,,,,,,,,,43.54244629997993,,,,43.529059700027574,43.54244629997993,43.54244629997993,43.54244629997993,43.82866210001521,43.82894109998597,43.84235849999823,43.84235849999823,43.84235849999823,44.14230970002245,44.14230970002245,44.14230970002245,44.12878979998641,43.84235849999823,43.84235849999823,43.84235849999823,,,,,,,,,,,,,,,,,,,,284399,001,2025-03-20_15h50.51.077,Estimulo_ICE,2024.2.4,59.98436808732614,2025-03-20 15h50.56.580611 -0300,
Estimulo_1,3,3,0,4.1,-4.1,4.1,-4.1,2.2,-2.2,-2.2,2.2,0,1,1,0,,,,,,,,,,,,,,,,,0,3,3,3,,,,,,,,,,,,,,,,,,,,,,,,,,,,,44.14230970002245,,,,44.12922509998316,44.14230970002245,44.14230970002245,44.14230970002245,44.42866789997788,44.42895899998257,44.44246430002386,44.44246430002386,44.44246430002386,44.74224629998207,44.74224629998207,44.74224629998207,44.72870779997902,44.44246430002386,44.44246430002386,44.44246430002386,,,,,,,,,,,,,,,,,,,,284399,001,2025-03-20_15h50.51.077,Estimulo_ICE,2024.2.4,59.98436808732614,2025-03-20 15h50.56.580611 -0300,
Estimulo_1,4,4,0,4,-4,4,-4,2.2,-2.2,-2.2,2.2,0,1,1,0,,,,,,,,,,,,,,,,,0,4,4,4,,,,,,,,,,,,,,,,,,,,,,,,,,,,,44.74224629998207,,,,44.72913880000124,44.74224629998207,44.74224629998207,44.74224629998207,45.02863180002896,45.02892160002375,45.04242220002925,45.04242220002925,45.04242220002925,45.34238019998884,45.34238019998884,45.34238019998884,45.32865610002773,45.04242220002925,45.04242220002925,45.04242220002925,,,,,,,,,,,,,,,,,,,,284399,001,2025-03-20_15h50.51.077,Estimulo_ICE,2024.2.4,59.98436808732614,2025-03-20 15h50.56.580611 -0300,
Estimulo_1,5,5,0,3.9,-3.9,3.9,-3.9,2.2,-2.2,-2.2,2.2,0,1,1,0,,,,,,,,,,,,,,,,,0,5,5,5,,,,,,,,,,,,,,,,,,,,,,,,,,,,,45.34238019998884,,,,45.329088900005445,45.34238019998884,45.34238019998884,45.34238019998884,45.62862799997674,45.628918099973816,45.64233270002296,45.64233270002296,45.64233270002296,45.9422752999817,45.9422752999817,45.9422752999817,45.92864749999717,45.64233270002296,45.64233270002296,45.64233270002296,,,,,,,,,,,,,,,,,,,,284399,001,2025-03-20_15h50.51.077,Estimulo_ICE,2024.2.4,59.98436808732614,2025-03-20 15h50.56.580611 -0300,
Estimulo_1,6,6,0,3.8,-3.8,3.8,-3.8,2.2,-2.2,-2.2,2.2,0,1,1,0,,,,,,,,,,,,,,,,,0,6,6,6,,,,,,,,,,,,,,,,,,,,,,,,,,,,,45.9422752999817,,,,45.929077700013295,45.9422752999817,45.9422752999817,45.9422752999817,46.22854079998797,46.228831799991895,46.242259600025136,46.242259600025136,46.242259600025136,46.542254199972376,46.542254199972376,46.542254199972376,46.528646900027525,46.242259600025136,46.242259600025136,46.242259600025136,,,,,,,,,,,,,,,,,,,,284399,001,2025-03-20_15h50.51.077,Estimulo_ICE,2024.2.4,59.98436808732614,2025-03-20 15h50.56.580611 -0300,
Estimulo_1,7,7,0,3.7,-3.7,3.7,-3.7,2.2,-2.2,-2.2,2.2,0,1,1,0,,,,,,,,,,,,,,,,,0,7,7,7,,,,,,,,,,,,,,,,,,,,,,,,,,,,,46.542254199972376,,,,46.52907910000067,46.542254199972376,46.542254199972376,46.542254199972376,46.82864879997214,46.82893880002666,46.84229509998113,46.84229509998113,46.84229509998113,47.142365999985486,47.142365999985486,47.142365999985486,47.12853649997851,46.84229509998113,46.84229509998113,46.84229509998113,,,,,,,,,,,,,,,,,,,,284399,001,2025-03-20_15h50.51.077,Estimulo_ICE,2024.2.4,59.98436808732614,2025-03-20 15h50.56.580611 -0300,
,8,8,0,3.6,-3.6,3.6,-3.6,2.2,-2.2,-2.2,2.2,,,,,,,,,,,,,,,,,,,,,0,8,8,8,,,,,,,,,,,,,,,,,,,,,,,,,,,,,47.142365999985486,,,,47.12897189997602,47.142365999985486,47.142365999985486,47.142365999985486,47.42864340002416,47.42893529997673,47.44221309997374,47.44221309997374,47.44221309997374,,,,,47.44221309997374,47.44221309997374,47.44221309997374,,,,,,,,,,,,,,,,,,,,,,,,,,,
