LoopName,thisN,thisTrialN,thisRepN,px1,px2,px3,px4,py1,py2,py3,py4,MainLoop.thisRepN,MainLoop.thisTrialN,MainLoop.thisN,MainLoop.thisIndex,loop_1.thisRepN,loop_1.thisTrialN,loop_1.thisN,loop_1.thisIndex,loop_2.thisRepN,loop_2.thisTrialN,loop_2.thisN,loop_2.thisIndex,loop_3.thisRepN,loop_3.thisTrialN,loop_3.thisN,loop_3.thisIndex,loop_4.thisRepN,loop_4.thisTrialN,loop_4.thisN,loop_4.thisIndex,loop_5.thisRepN,loop_5.thisTrialN,loop_5.thisN,loop_5.thisIndex,thisRow.t,notes,codigo.started,codigo.stopped,trial.started,image.started,image_2.started,polygon.started,trial.stopped,trial_2.started,image_3.started,image_4.started,polygon_2.started,trial_2.stopped,trial_3.started,image_5.started,image_6.started,polygon_3.started,trial_3.stopped,trial_4.started,image_7.started,image_8.started,polygon_4.started,image_7.stopped,image_8.stopped,polygon_4.stopped,trial_4.stopped,image_5.stopped,image_6.stopped,polygon_3.stopped,participant,session,date,expName,psychopyVersion,frameRate,expStart,
Estimulo_1,0,0,0,4.4,-4.4,4.4,-4.4,2.2,-2.2,-2.2,2.2,0,0,0,0,0,0,0,0,,,,,,,,,,,,,,,,,0.04200250000030792,,0.01762959999996383,0.017977299999984098,0.02884760000051756,0.04200250000030792,0.04200250000030792,0.04200250000030792,0.3271451000000525,0.32736540000041714,0.3414818999999625,0.3414818999999625,0.3414818999999625,0.6270414999999048,,,,,,,,,,,,,,,,,328506,001,2025-03-17_15h20.39.086,Estimulo_ICE,2024.2.4,59.921071963797104,2025-03-17 15h20.45.644518 -0300,
Estimulo_1,1,1,0,4.3,-4.3,4.3,-4.3,2.2,-2.2,-2.2,2.2,0,0,0,0,0,1,1,1,,,,,,,,,,,,,,,,,0.6416367000001628,,,,0.6273846000003687,0.6416367000001628,0.6416367000001628,0.6416367000001628,0.9269289000003482,0.927164100000482,0.9412059000005684,0.9412059000005684,0.9412059000005684,1.2269371000002138,,,,,,,,,,,,,,,,,328506,001,2025-03-17_15h20.39.086,Estimulo_ICE,2024.2.4,59.921071963797104,2025-03-17 15h20.45.644518 -0300,
Estimulo_1,2,2,0,4.2,-4.2,4.2,-4.2,2.2,-2.2,-2.2,2.2,0,0,0,0,0,2,2,2,,,,,,,,,,,,,,,,,1.2415656000002855,,,,1.2272835000003397,1.2415656000002855,1.2415656000002855,1.2415656000002855,1.5269107000003714,1.5271499000000404,1.5415910000001531,1.5415910000001531,1.5415910000001531,1.8271246000003885,,,,,,,,,,,,,,,,,328506,001,2025-03-17_15h20.39.086,Estimulo_ICE,2024.2.4,59.921071963797104,2025-03-17 15h20.45.644518 -0300,
Estimulo_1,3,3,0,4.1,-4.1,4.1,-4.1,2.2,-2.2,-2.2,2.2,0,0,0,0,0,3,3,3,,,,,,,,,,,,,,,,,1.8413492999998198,,,,1.827473800000007,1.8413492999998198,1.8413492999998198,1.8413492999998198,2.127184599999964,2.1274207000005845,2.1414770999999746,2.1414770999999746,2.1414770999999746,2.4270543000002363,,,,,,,,,,,,,,,,,328506,001,2025-03-17_15h20.39.086,Estimulo_ICE,2024.2.4,59.921071963797104,2025-03-17 15h20.45.644518 -0300,
Estimulo_1,4,4,0,4,-4,4,-4,2.2,-2.2,-2.2,2.2,0,0,0,0,0,4,4,4,,,,,,,,,,,,,,,,,2.4413924999998926,,,,2.4273996000001716,2.4413924999998926,2.4413924999998926,2.4413924999998926,2.7269772999998168,2.7272123000002466,2.741481800000656,2.741481800000656,2.741481800000656,3.027110800000628,,,,,,,,,,,,,,,,,328506,001,2025-03-17_15h20.39.086,Estimulo_ICE,2024.2.4,59.921071963797104,2025-03-17 15h20.45.644518 -0300,
Estimulo_1,5,5,0,3.9,-3.9,3.9,-3.9,2.2,-2.2,-2.2,2.2,0,0,0,0,0,5,5,5,,,,,,,,,,,,,,,,,3.0416144999999233,,,,3.0274546999999075,3.0416144999999233,3.0416144999999233,3.0416144999999233,3.3270283000001655,3.327260400000341,3.3415420999999697,3.3415420999999697,3.3415420999999697,3.6270212999997966,,,,,,,,,,,,,,,,,328506,001,2025-03-17_15h20.39.086,Estimulo_ICE,2024.2.4,59.921071963797104,2025-03-17 15h20.45.644518 -0300,
Estimulo_1,6,6,0,3.8,-3.8,3.8,-3.8,2.2,-2.2,-2.2,2.2,0,0,0,0,0,6,6,6,,,,,,,,,,,,,,,,,3.6418542000001253,,,,3.6273627999999007,3.6418542000001253,3.6418542000001253,3.6418542000001253,3.927044200000637,3.9272795000006226,3.941554800000631,3.941554800000631,3.941554800000631,4.22700739999982,,,,,,,,,,,,,,,,,328506,001,2025-03-17_15h20.39.086,Estimulo_ICE,2024.2.4,59.921071963797104,2025-03-17 15h20.45.644518 -0300,
Estimulo_1,7,7,0,3.7,-3.7,3.7,-3.7,2.2,-2.2,-2.2,2.2,0,0,0,0,0,7,7,7,,,,,,,,,,,,,,,,,4.2415915000001405,,,,4.2273488999999245,4.2415915000001405,4.2415915000001405,4.2415915000001405,4.52704040000026,4.527274400000351,4.541481500000373,4.541481500000373,4.541481500000373,4.827044399999977,,,,,,,,,,,,,,,,,328506,001,2025-03-17_15h20.39.086,Estimulo_ICE,2024.2.4,59.921071963797104,2025-03-17 15h20.45.644518 -0300,
Estimulo_1,8,8,0,3.6,-3.6,3.6,-3.6,2.2,-2.2,-2.2,2.2,0,0,0,0,0,8,8,8,,,,,,,,,,,,,,,,,4.841443400000571,,,,4.82738370000061,4.841443400000571,4.841443400000571,4.841443400000571,5.12703590000001,5.127273400000377,5.141417499999989,5.141417499999989,5.141417499999989,5.42703100000017,,,,,,,,,,,,,,,,,328506,001,2025-03-17_15h20.39.086,Estimulo_ICE,2024.2.4,59.921071963797104,2025-03-17 15h20.45.644518 -0300,
Estimulo_1,9,9,0,3.5,-3.5,3.5,-3.5,2.2,-2.2,-2.2,2.2,0,0,0,0,0,9,9,9,,,,,,,,,,,,,,,,,5.44136620000063,,,,5.427373000000443,5.44136620000063,5.44136620000063,5.44136620000063,5.727022600000055,5.727254999999786,5.7415406999998595,5.7415406999998595,5.7415406999998595,6.026945700000397,,,,,,,,,,,,,,,,,328506,001,2025-03-17_15h20.39.086,Estimulo_ICE,2024.2.4,59.921071963797104,2025-03-17 15h20.45.644518 -0300,
Estimulo_1,10,10,0,3.39999999999999,-3.39999999999999,3.39999999999999,-3.39999999999999,2.2,-2.2,-2.2,2.2,0,0,0,0,0,10,10,10,,,,,,,,,,,,,,,,,6.041461100000561,,,,6.027290300000459,6.041461100000561,6.041461100000561,6.041461100000561,6.326995299999908,6.32722879999983,6.341417600000568,6.341417600000568,6.341417600000568,6.626991199999793,,,,,,,,,,,,,,,,,328506,001,2025-03-17_15h20.39.086,Estimulo_ICE,2024.2.4,59.921071963797104,2025-03-17 15h20.45.644518 -0300,
Estimulo_1,11,11,0,3.29999999999999,-3.29999999999999,3.29999999999999,-3.29999999999999,2.2,-2.2,-2.2,2.2,0,0,0,0,0,11,11,11,,,,,,,,,,,,,,,,,6.641549400000258,,,,6.627342499999941,6.641549400000258,6.641549400000258,6.641549400000258,6.926837500000147,6.927070800000365,6.941259199999877,6.941259199999877,6.941259199999877,7.226903900000252,,,,,,,,,,,,,,,,,328506,001,2025-03-17_15h20.39.086,Estimulo_ICE,2024.2.4,59.921071963797104,2025-03-17 15h20.45.644518 -0300,
Estimulo_1,12,12,0,3.19999999999999,-3.19999999999999,3.19999999999999,-3.19999999999999,2.2,-2.2,-2.2,2.2,0,0,0,0,0,12,12,12,,,,,,,,,,,,,,,,,7.2414974000002985,,,,7.227245699999912,7.2414974000002985,7.2414974000002985,7.2414974000002985,7.5267774000003556,7.527011799999855,7.541459699999905,7.541459699999905,7.541459699999905,7.826968600000328,,,,,,,,,,,,,,,,,328506,001,2025-03-17_15h20.39.086,Estimulo_ICE,2024.2.4,59.921071963797104,2025-03-17 15h20.45.644518 -0300,
Estimulo_1,13,13,0,3.09999999999999,-3.09999999999999,3.09999999999999,-3.09999999999999,2.2,-2.2,-2.2,2.2,0,0,0,0,0,13,13,13,,,,,,,,,,,,,,,,,7.841554999999971,,,,7.827312400000665,7.841554999999971,7.841554999999971,7.841554999999971,8.126976399999876,8.12721049999982,8.141501600000083,8.141501600000083,8.141501600000083,8.42697600000065,,,,,,,,,,,,,,,,,328506,001,2025-03-17_15h20.39.086,Estimulo_ICE,2024.2.4,59.921071963797104,2025-03-17 15h20.45.644518 -0300,
Estimulo_1,14,14,0,2.99999999999999,-2.99999999999999,2.99999999999999,-2.99999999999999,2.2,-2.2,-2.2,2.2,0,0,0,0,0,14,14,14,,,,,,,,,,,,,,,,,8.44138329999987,,,,8.427318500000183,8.44138329999987,8.44138329999987,8.44138329999987,8.726817900000242,8.727051800000481,8.741508400000384,8.741508400000384,8.741508400000384,9.026960500000314,,,,,,,,,,,,,,,,,328506,001,2025-03-17_15h20.39.086,Estimulo_ICE,2024.2.4,59.921071963797104,2025-03-17 15h20.45.644518 -0300,
Estimulo_1,15,15,0,2.89999999999999,-2.89999999999999,2.89999999999999,-2.89999999999999,2.2,-2.2,-2.2,2.2,0,0,0,0,0,15,15,15,,,,,,,,,,,,,,,,,9.041506100000333,,,,9.027303400000164,9.041506100000333,9.041506100000333,9.041506100000333,9.326755500000218,9.3269906000005,9.341411400000652,9.341411400000652,9.341411400000652,9.626809800000046,,,,,,,,,,,,,,,,,328506,001,2025-03-17_15h20.39.086,Estimulo_ICE,2024.2.4,59.921071963797104,2025-03-17 15h20.45.644518 -0300,
Estimulo_1,16,16,0,2.79999999999999,-2.79999999999999,2.79999999999999,-2.79999999999999,2.2,-2.2,-2.2,2.2,0,0,0,0,0,16,16,16,,,,,,,,,,,,,,,,,9.641386899999816,,,,9.627152600000045,9.641386899999816,9.641386899999816,9.641386899999816,9.926796200000354,9.927032000000509,9.94140250000055,9.94140250000055,9.94140250000055,10.226745900000424,,,,,,,,,,,,,,,,,328506,001,2025-03-17_15h20.39.086,Estimulo_ICE,2024.2.4,59.921071963797104,2025-03-17 15h20.45.644518 -0300,
Estimulo_1,17,17,0,2.69999999999999,-2.69999999999999,2.69999999999999,-2.69999999999999,2.2,-2.2,-2.2,2.2,0,0,0,0,0,17,17,17,,,,,,,,,,,,,,,,,10.241540500000156,,,,10.227090800000042,10.241540500000156,10.241540500000156,10.241540500000156,10.526948400000038,10.52718460000051,10.541474800000287,10.541474800000287,10.541474800000287,10.826977400000033,,,,,,,,,,,,,,,,,328506,001,2025-03-17_15h20.39.086,Estimulo_ICE,2024.2.4,59.921071963797104,2025-03-17 15h20.45.644518 -0300,
Estimulo_1,18,18,0,2.59999999999999,-2.59999999999999,2.59999999999999,-2.59999999999999,2.2,-2.2,-2.2,2.2,0,0,0,0,0,18,18,18,,,,,,,,,,,,,,,,,10.841239600000335,,,,10.827321499999925,10.841239600000335,10.841239600000335,10.841239600000335,11.12701030000062,11.127246000000014,11.141306700000314,11.141306700000314,11.141306700000314,11.426949900000182,,,,,,,,,,,,,,,,,328506,001,2025-03-17_15h20.39.086,Estimulo_ICE,2024.2.4,59.921071963797104,2025-03-17 15h20.45.644518 -0300,
Estimulo_1,19,19,0,2.49999999999999,-2.49999999999999,2.49999999999999,-2.49999999999999,2.2,-2.2,-2.2,2.2,0,0,0,0,0,19,19,19,,,,,,,,,,,,,,,,,11.441475000000537,,,,11.427295200000117,11.441475000000537,11.441475000000537,11.441475000000537,11.726748000000043,11.726986900000156,11.741455700000188,11.741455700000188,11.741455700000188,12.026949400000376,,,,,,,,,,,,,,,,,328506,001,2025-03-17_15h20.39.086,Estimulo_ICE,2024.2.4,59.921071963797104,2025-03-17 15h20.45.644518 -0300,
Estimulo_1,20,20,0,2.39999999999999,-2.39999999999999,2.39999999999999,-2.39999999999999,2.2,-2.2,-2.2,2.2,0,0,0,0,0,20,20,20,,,,,,,,,,,,,,,,,12.041264800000135,,,,12.0272930000001,12.041264800000135,12.041264800000135,12.041264800000135,12.32694679999986,12.327184300000226,12.341424300000654,12.341424300000654,12.341424300000654,12.626951100000042,,,,,,,,,,,,,,,,,328506,001,2025-03-17_15h20.39.086,Estimulo_ICE,2024.2.4,59.921071963797104,2025-03-17 15h20.45.644518 -0300,
Estimulo_1,21,21,0,2.29999999999999,-2.29999999999999,2.29999999999999,-2.29999999999999,2.2,-2.2,-2.2,2.2,0,0,0,0,0,21,21,21,,,,,,,,,,,,,,,,,12.641306600000462,,,,12.627291900000273,12.641306600000462,12.641306600000462,12.641306600000462,12.926928500000031,12.92716240000027,12.941105400000197,12.941105400000197,12.941105400000197,13.229833500000495,,,,,,,,,,,,,,,,,328506,001,2025-03-17_15h20.39.086,Estimulo_ICE,2024.2.4,59.921071963797104,2025-03-17 15h20.45.644518 -0300,
Estimulo_1,22,22,0,2.19999999999999,-2.19999999999999,2.19999999999999,-2.19999999999999,2.2,-2.2,-2.2,2.2,0,0,0,0,0,22,22,22,,,,,,,,,,,,,,,,,13.242368300000635,,,,13.230486100000235,13.242368300000635,13.242368300000635,13.242368300000635,13.529708699999901,13.53015460000006,13.542427000000316,13.542427000000316,13.542427000000316,13.830142900000283,,,,,,,,,,,,,,,,,328506,001,2025-03-17_15h20.39.086,Estimulo_ICE,2024.2.4,59.921071963797104,2025-03-17 15h20.45.644518 -0300,
Estimulo_1,23,23,0,2.09999999999999,-2.09999999999999,2.09999999999999,-2.09999999999999,2.2,-2.2,-2.2,2.2,0,0,0,0,0,23,23,23,,,,,,,,,,,,,,,,,13.842394400000558,,,,13.830848499999775,13.842394400000558,13.842394400000558,13.842394400000558,14.130185099999835,14.130672100000083,14.142328100000668,14.142328100000668,14.142328100000668,14.430246100000659,,,,,,,,,,,,,,,,,328506,001,2025-03-17_15h20.39.086,Estimulo_ICE,2024.2.4,59.921071963797104,2025-03-17 15h20.45.644518 -0300,
Estimulo_1,24,24,0,1.99999999999999,-1.99999999999999,1.99999999999999,-1.99999999999999,2.2,-2.2,-2.2,2.2,0,0,0,0,0,24,24,24,,,,,,,,,,,,,,,,,14.442221400000562,,,,14.430956600000172,14.442221400000562,14.442221400000562,14.442221400000562,14.730174000000261,14.73065940000015,14.742347899999913,14.742347899999913,14.742347899999913,15.030249200000071,,,,,,,,,,,,,,,,,328506,001,2025-03-17_15h20.39.086,Estimulo_ICE,2024.2.4,59.921071963797104,2025-03-17 15h20.45.644518 -0300,
Estimulo_1,25,25,0,1.89999999999999,-1.89999999999999,1.89999999999999,-1.89999999999999,2.2,-2.2,-2.2,2.2,0,0,0,0,0,25,25,25,,,,,,,,,,,,,,,,,15.042290800000046,,,,15.030967700000474,15.042290800000046,15.042290800000046,15.042290800000046,15.330613400000402,15.3310977000001,15.342402299999776,15.342402299999776,15.342402299999776,15.630242199999884,,,,,,,,,,,,,,,,,328506,001,2025-03-17_15h20.39.086,Estimulo_ICE,2024.2.4,59.921071963797104,2025-03-17 15h20.45.644518 -0300,
Estimulo_1,26,26,0,1.79999999999999,-1.79999999999999,1.79999999999999,-1.79999999999999,2.2,-2.2,-2.2,2.2,0,0,0,0,0,26,26,26,,,,,,,,,,,,,,,,,15.642200600000251,,,,15.6309454000002,15.642200600000251,15.642200600000251,15.642200600000251,15.93021790000057,15.930878600000142,15.942050700000436,15.942050700000436,15.942050700000436,16.227817200000572,,,,,,,,,,,,,,,,,328506,001,2025-03-17_15h20.39.086,Estimulo_ICE,2024.2.4,59.921071963797104,2025-03-17 15h20.45.644518 -0300,
Estimulo_1,27,27,0,1.69999999999999,-1.69999999999999,1.69999999999999,-1.69999999999999,2.2,-2.2,-2.2,2.2,0,0,0,0,0,27,27,27,,,,,,,,,,,,,,,,,16.241628200000378,,,,16.228269799999907,16.241628200000378,16.241628200000378,16.241628200000378,16.527804299999843,16.528115400000388,16.54164209999999,16.54164209999999,16.54164209999999,16.827717900000607,,,,,,,,,,,,,,,,,328506,001,2025-03-17_15h20.39.086,Estimulo_ICE,2024.2.4,59.921071963797104,2025-03-17 15h20.45.644518 -0300,
Estimulo_1,28,28,0,1.59999999999999,-1.59999999999999,1.59999999999999,-1.59999999999999,2.2,-2.2,-2.2,2.2,0,0,0,0,0,28,28,28,,,,,,,,,,,,,,,,,16.84163069999977,,,,16.828176400000302,16.84163069999977,16.84163069999977,16.84163069999977,17.127748700000666,17.1280555000003,17.14163439999993,17.14163439999993,17.14163439999993,17.426966600000014,,,,,,,,,,,,,,,,,328506,001,2025-03-17_15h20.39.086,Estimulo_ICE,2024.2.4,59.921071963797104,2025-03-17 15h20.45.644518 -0300,
Estimulo_1,29,29,0,1.49999999999999,-1.49999999999998,1.49999999999999,-1.49999999999998,2.2,-2.2,-2.2,2.2,0,0,0,0,0,29,29,29,,,,,,,,,,,,,,,,,17.441400100000465,,,,17.4273103000005,17.441400100000465,17.441400100000465,17.441400100000465,17.726707499999975,17.726922800000466,17.741392100000667,17.741392100000667,17.741392100000667,18.026736300000266,,,,,,,,,,,,,,,,,328506,001,2025-03-17_15h20.39.086,Estimulo_ICE,2024.2.4,59.921071963797104,2025-03-17 15h20.45.644518 -0300,
Estimulo_1,30,30,0,1.39999999999999,-1.39999999999998,1.39999999999999,-1.39999999999998,2.2,-2.2,-2.2,2.2,0,0,0,0,0,30,30,30,,,,,,,,,,,,,,,,,18.041327200000524,,,,18.027083300000413,18.041327200000524,18.041327200000524,18.041327200000524,18.32682290000048,18.32705850000002,18.341283000000658,18.341283000000658,18.341283000000658,18.62693450000006,,,,,,,,,,,,,,,,,328506,001,2025-03-17_15h20.39.086,Estimulo_ICE,2024.2.4,59.921071963797104,2025-03-17 15h20.45.644518 -0300,
Estimulo_1,31,31,0,1.29999999999999,-1.29999999999998,1.29999999999999,-1.29999999999998,2.2,-2.2,-2.2,2.2,0,0,0,0,0,31,31,31,,,,,,,,,,,,,,,,,18.64128080000046,,,,18.627277100000356,18.64128080000046,18.64128080000046,18.64128080000046,18.92687930000011,18.92711380000037,18.941140100000666,18.941140100000666,18.941140100000666,19.229643900000156,,,,,,,,,,,,,,,,,328506,001,2025-03-17_15h20.39.086,Estimulo_ICE,2024.2.4,59.921071963797104,2025-03-17 15h20.45.644518 -0300,
Estimulo_1,32,32,0,1.19999999999999,-1.19999999999998,1.19999999999999,-1.19999999999998,2.2,-2.2,-2.2,2.2,0,0,0,0,0,32,32,32,,,,,,,,,,,,,,,,,19.24215009999989,,,,19.230321600000025,19.24215009999989,19.24215009999989,19.24215009999989,19.52983409999979,19.53028489999997,19.542251900000338,19.542251900000338,19.542251900000338,19.829856100000143,,,,,,,,,,,,,,,,,328506,001,2025-03-17_15h20.39.086,Estimulo_ICE,2024.2.4,59.921071963797104,2025-03-17 15h20.45.644518 -0300,
Estimulo_1,33,33,0,1.09999999999999,-1.09999999999998,1.09999999999999,-1.09999999999998,2.2,-2.2,-2.2,2.2,0,0,0,0,0,33,33,33,,,,,,,,,,,,,,,,,19.84217820000049,,,,19.830512100000306,19.84217820000049,19.84217820000049,19.84217820000049,20.13232860000062,20.132772800000566,20.14190510000026,20.14190510000026,20.14190510000026,20.4295288000003,,,,,,,,,,,,,,,,,328506,001,2025-03-17_15h20.39.086,Estimulo_ICE,2024.2.4,59.921071963797104,2025-03-17 15h20.45.644518 -0300,
Estimulo_1,0,0,0,4.4,-4.4,4.4,-4.4,2.2,-2.2,-2.2,2.2,0,0,0,0,,,,,,,,,,,,,,,,,0,0,0,0,20.50754860000052,,,,,,,,,,,,,,20.490877700000055,20.50754860000052,20.50754860000052,20.50754860000052,20.715578899999855,20.716158799999903,20.726231700000426,20.726231700000426,20.726231700000426,21.02606780000042,21.02606780000042,21.02606780000042,21.01557810000031,,,,328506,001,2025-03-17_15h20.39.086,Estimulo_ICE,2024.2.4,59.921071963797104,2025-03-17 15h20.45.644518 -0300,
Estimulo_1,1,1,0,4.3,-4.3,4.3,-4.3,2.2,-2.2,-2.2,2.2,0,0,0,0,,,,,,,,,,,,,,,,,0,1,1,1,21.02606780000042,,,,,,,,,,,,,,21.016481300000123,21.02606780000042,21.02606780000042,21.02606780000042,21.315620899999885,21.316256799999792,21.32606769999984,21.32606769999984,21.32606769999984,21.62627330000032,21.62627330000032,21.62627330000032,21.615624600000046,21.32606769999984,21.32606769999984,21.32606769999984,328506,001,2025-03-17_15h20.39.086,Estimulo_ICE,2024.2.4,59.921071963797104,2025-03-17 15h20.45.644518 -0300,
Estimulo_1,2,2,0,4.2,-4.2,4.2,-4.2,2.2,-2.2,-2.2,2.2,0,0,0,0,,,,,,,,,,,,,,,,,0,2,2,2,21.62627330000032,,,,,,,,,,,,,,21.616533899999922,21.62627330000032,21.62627330000032,21.62627330000032,21.91569900000013,21.916324100000566,21.926158500000383,21.926158500000383,21.926158500000383,22.225172600000406,22.225172600000406,22.225172600000406,22.21250349999991,21.926158500000383,21.926158500000383,21.926158500000383,328506,001,2025-03-17_15h20.39.086,Estimulo_ICE,2024.2.4,59.921071963797104,2025-03-17 15h20.45.644518 -0300,
Estimulo_1,3,3,0,4.1,-4.1,4.1,-4.1,2.2,-2.2,-2.2,2.2,0,0,0,0,,,,,,,,,,,,,,,,,0,3,3,3,22.225172600000406,,,,,,,,,,,,,,22.213085700000192,22.225172600000406,22.225172600000406,22.225172600000406,22.512539000000288,22.512938300000314,22.525152799999887,22.525152799999887,22.525152799999887,22.824683200000436,22.824683200000436,22.824683200000436,22.810485900000458,22.525152799999887,22.525152799999887,22.525152799999887,328506,001,2025-03-17_15h20.39.086,Estimulo_ICE,2024.2.4,59.921071963797104,2025-03-17 15h20.45.644518 -0300,
,4,4,0,4,-4,4,-4,2.2,-2.2,-2.2,2.2,,,,,,,,,,,,,,,,,,,,,0,4,4,4,22.824683200000436,,,,,,,,,,,,,,22.81085179999991,22.824683200000436,22.824683200000436,22.824683200000436,23.112451400000282,23.11285399999997,23.125128300000142,23.125128300000142,23.125128300000142,,,,,23.125128300000142,23.125128300000142,23.125128300000142,,,,,,,,
