LoopName,thisN,thisTrialN,thisRepN,px1,px2,px3,px4,py1,py2,py3,py4,key_resp_6.keys,key_resp_7.keys,key_resp_6.rt,key_resp_6.duration,key_resp_7.rt,key_resp_7.duration,key_resp_4.keys,key_resp_5.keys,key_resp_5.rt,key_resp_5.duration,key_resp_4.rt,key_resp_4.duration,MainLoop.thisRepN,MainLoop.thisTrialN,MainLoop.thisN,MainLoop.thisIndex,loop_1.thisRepN,loop_1.thisTrialN,loop_1.thisN,loop_1.thisIndex,loop_2.thisRepN,loop_2.thisTrialN,loop_2.thisN,loop_2.thisIndex,loop_3.thisRepN,loop_3.thisTrialN,loop_3.thisN,loop_3.thisIndex,loop_4.thisRepN,loop_4.thisTrialN,loop_4.thisN,loop_4.thisIndex,loop_5.thisRepN,loop_5.thisTrialN,loop_5.thisN,loop_5.thisIndex,loop_6.thisRepN,loop_6.thisTrialN,loop_6.thisN,loop_6.thisIndex,loop_7.thisRepN,loop_7.thisTrialN,loop_7.thisN,loop_7.thisIndex,loop_8.thisRepN,loop_8.thisTrialN,loop_8.thisN,loop_8.thisIndex,loop_9.thisRepN,loop_9.thisTrialN,loop_9.thisN,loop_9.thisIndex,loop_10.thisRepN,loop_10.thisTrialN,loop_10.thisN,loop_10.thisIndex,loop_11.thisRepN,loop_11.thisTrialN,loop_11.thisN,loop_11.thisIndex,loop_12.thisRepN,loop_12.thisTrialN,loop_12.thisN,loop_12.thisIndex,thisRow.t,notes,codigo.started,codigo.stopped,trial_5.started,image_9.started,polygon_6.started,image_10.started,key_resp_6.started,trial_5.stopped,loop_12.key_resp_6.keys,trial_6.started,image_11.started,image_12.started,polygon_7.started,key_resp_7.started,trial_6.stopped,loop_12.key_resp_7.keys,loop_12.key_resp_6.rt,loop_12.key_resp_6.duration,loop_12.key_resp_7.rt,loop_12.key_resp_7.duration,_intertrial_interval_.started,polygon_5.started,_intertrial_interval_.stopped,trial_3.started,image_5.started,image_6.started,polygon_3.started,key_resp_4.started,trial_3.stopped,loop_7.key_resp_4.keys,trial_4.started,image_7.started,image_8.started,polygon_4.started,key_resp_5.started,image_7.stopped,image_8.stopped,polygon_4.stopped,key_resp_5.stopped,trial_4.stopped,loop_7.key_resp_5.keys,loop_7.key_resp_5.rt,loop_7.key_resp_5.duration,image_5.stopped,image_6.stopped,polygon_3.stopped,key_resp_4.stopped,loop_7.key_resp_4.rt,loop_7.key_resp_4.duration,loop_9.key_resp_6.keys,loop_9.key_resp_6.rt,loop_9.key_resp_6.duration,loop_9.key_resp_7.keys,loop_9.key_resp_7.rt,loop_9.key_resp_7.duration,participant,session,date,expName,psychopyVersion,frameRate,expStart,
Estimulo_12,0,0,0,2.2,-2.2,-2.2,2.2,1.09999999999998,-1.09999999999998,1.09999999999998,-1.09999999999998,None,None,,,,,,,,,,,0,0,0,11,,,,,,,,,,,,,,,,,,,,,,,,,,,,,,,,,,,,,,,,,,,,,0,0,0,0,0.21789050000006682,,0.025231400000166104,0.025629700000081357,0.20942460000014762,0.21789050000006682,0.21789050000006682,0.21789050000006682,0.21789050000006682,0.33638730000006944,None,0.3366147000001547,0.3508763000002091,0.3508763000002091,0.3508763000002091,0.3508763000002091,0.6400864000002002,None,,,,,,,,,,,,,,,,,,,,,,,,,,,,,,,,,,,,,,,,332057,001,2025-03-24_15h55.42.515,Estimulo_ICE,2024.2.4,60.393366151068804,2025-03-24 15h55.46.858966 -0300,
Estimulo_12,1,1,0,2.2,-2.2,-2.2,2.2,1.19999999999998,-1.19999999999998,1.19999999999998,-1.19999999999998,None,None,,,,,,,,,,,0,0,0,11,,,,,,,,,,,,,,,,,,,,,,,,,,,,,,,,,,,,,,,,,,,,,0,1,1,1,0.6520920000000388,,,,0.6409067000001869,0.6520920000000388,0.6520920000000388,0.6520920000000388,0.6520920000000388,0.9362226000000646,None,0.9364690000002156,0.9507677000001422,0.9507677000001422,0.9507677000001422,0.9507677000001422,1.2364070000000993,None,,,,,,,,,,,,,,,,,,,,,,,,,,,,,,,,,,,,,,,,332057,001,2025-03-24_15h55.42.515,Estimulo_ICE,2024.2.4,60.393366151068804,2025-03-24 15h55.46.858966 -0300,
Estimulo_12,2,2,0,2.2,-2.2,-2.2,2.2,1.29999999999998,-1.29999999999998,1.29999999999998,-1.29999999999998,None,None,,,,,,,,,,,0,0,0,11,,,,,,,,,,,,,,,,,,,,,,,,,,,,,,,,,,,,,,,,,,,,,0,2,2,2,1.2507221000000754,,,,1.236765000000105,1.2507221000000754,1.2507221000000754,1.2507221000000754,1.2507221000000754,1.5363340000001244,None,1.5365787000000637,1.5507699000002049,1.5507699000002049,1.5507699000002049,1.5507699000002049,1.8362990000000536,None,,,,,,,,,,,,,,,,,,,,,,,,,,,,,,,,,,,,,,,,332057,001,2025-03-24_15h55.42.515,Estimulo_ICE,2024.2.4,60.393366151068804,2025-03-24 15h55.46.858966 -0300,
Estimulo_12,3,3,0,2.2,-2.2,-2.2,2.2,1.39999999999998,-1.39999999999998,1.39999999999998,-1.39999999999998,None,None,,,,,,,,,,,0,0,0,11,,,,,,,,,,,,,,,,,,,,,,,,,,,,,,,,,,,,,,,,,,,,,0,3,3,3,1.850960299999997,,,,1.8366539000001012,1.850960299999997,1.850960299999997,1.850960299999997,1.850960299999997,2.1362314000000424,None,2.136478600000146,2.150773500000014,2.150773500000014,2.150773500000014,2.150773500000014,2.435997400000133,None,,,,,,,,,,,,,,,,,,,,,,,,,,,,,,,,,,,,,,,,332057,001,2025-03-24_15h55.42.515,Estimulo_ICE,2024.2.4,60.393366151068804,2025-03-24 15h55.46.858966 -0300,
Estimulo_12,4,4,0,2.2,-2.2,-2.2,2.2,1.49999999999998,-1.49999999999998,1.49999999999998,-1.49999999999998,None,None,,,,,,,,,,,0,0,0,11,,,,,,,,,,,,,,,,,,,,,,,,,,,,,,,,,,,,,,,,,,,,,0,4,4,4,2.4509629000001496,,,,2.4363285000001724,2.4509629000001496,2.4509629000001496,2.4509629000001496,2.4509629000001496,2.736304300000029,None,2.736551300000201,2.75087590000021,2.75087590000021,2.75087590000021,2.75087590000021,3.0363296000000446,None,,,,,,,,,,,,,,,,,,,,,,,,,,,,,,,,,,,,,,,,332057,001,2025-03-24_15h55.42.515,Estimulo_ICE,2024.2.4,60.393366151068804,2025-03-24 15h55.46.858966 -0300,
Estimulo_12,5,5,0,2.2,-2.2,-2.2,2.2,1.59999999999998,-1.59999999999998,1.59999999999998,-1.59999999999998,['up'],None,[0.042349399999920934],[0.1130150000001322],,,,,,,,,0,0,0,11,,,,,,,,,,,,,,,,,,,,,,,,,,,,,,,,,,,,,,,,,,,,,0,5,5,5,3.050672100000156,,,,3.0366877000001296,3.050672100000156,3.050672100000156,3.050672100000156,3.050672100000156,3.3364402000001974,['up'],3.3367152000000715,3.350772800000186,3.350772800000186,3.350772800000186,3.350772800000186,3.636950100000149,None,[0.042349399999920934],[0.1130150000001322],,,,,,,,,,,,,,,,,,,,,,,,,,,,,,,,,,,,,,332057,001,2025-03-24_15h55.42.515,Estimulo_ICE,2024.2.4,60.393366151068804,2025-03-24 15h55.46.858966 -0300,
Estimulo_12,6,6,0,2.2,-2.2,-2.2,2.2,1.69999999999998,-1.69999999999998,1.69999999999998,-1.69999999999998,['up'],"['up', 'up']",[0.06588099999999031],[0.11998480000011114],"[0.0461612999999943, 0.24682239999992817]","[0.07999999999992724, None]",,,,,,,0,0,0,11,,,,,,,,,,,,,,,,,,,,,,,,,,,,,,,,,,,,,,,,,,,,,0,6,6,6,3.650884600000154,,,,3.637300100000175,3.650884600000154,3.650884600000154,3.650884600000154,3.650884600000154,3.93631060000007,['up'],3.9365812000000915,3.950776100000212,3.950776100000212,3.950776100000212,3.950776100000212,4.236306700000114,"['up', 'up']",[0.06588099999999031],[0.11998480000011114],"[0.0461612999999943, 0.24682239999992817]","[0.07999999999992724, None]",,,,,,,,,,,,,,,,,,,,,,,,,,,,,,,,,,,,332057,001,2025-03-24_15h55.42.515,Estimulo_ICE,2024.2.4,60.393366151068804,2025-03-24 15h55.46.858966 -0300,
Estimulo_12,7,7,0,2.2,-2.2,-2.2,2.2,1.79999999999998,-1.79999999999998,1.79999999999998,-1.79999999999998,['up'],['up'],[0.1709508999999798],[0.09511990000009973],[0.10227420000001075],[0.08855719999996836],,,,,,,0,0,0,11,,,,,,,,,,,,,,,,,,,,,,,,,,,,,,,,,,,,,,,,,,,,,0,7,7,7,4.250702799999999,,,,4.236688000000186,4.250702799999999,4.250702799999999,4.250702799999999,4.250702799999999,4.536282200000187,['up'],4.5365502000001925,4.550863400000026,4.550863400000026,4.550863400000026,4.550863400000026,4.83632230000012,['up'],[0.1709508999999798],[0.09511990000009973],[0.10227420000001075],[0.08855719999996836],,,,,,,,,,,,,,,,,,,,,,,,,,,,,,,,,,,,332057,001,2025-03-24_15h55.42.515,Estimulo_ICE,2024.2.4,60.393366151068804,2025-03-24 15h55.46.858966 -0300,
Estimulo_12,8,8,0,2.2,-2.2,-2.2,2.2,1.89999999999998,-1.89999999999998,1.89999999999998,-1.89999999999998,"['up', 'up']",None,"[-0.00459299999988616, 0.13824780000004466]","[0.04758589999983087, 0.06386799999995674]",,,,,,,,,0,0,0,11,,,,,,,,,,,,,,,,,,,,,,,,,,,,,,,,,,,,,,,,,,,,,0,8,8,8,4.850652000000082,,,,4.83670230000007,4.850652000000082,4.850652000000082,4.850652000000082,4.850652000000082,5.138905600000044,"['up', 'up']",5.139396500000203,5.1515104000000065,5.1515104000000065,5.1515104000000065,5.1515104000000065,5.436831100000063,None,"[-0.00459299999988616, 0.13824780000004466]","[0.04758589999983087, 0.06386799999995674]",,,,,,,,,,,,,,,,,,,,,,,,,,,,,,,,,,,,,,332057,001,2025-03-24_15h55.42.515,Estimulo_ICE,2024.2.4,60.393366151068804,2025-03-24 15h55.46.858966 -0300,
Estimulo_12,9,9,0,2.2,-2.2,-2.2,2.2,1.99999999999998,-1.99999999999998,1.99999999999998,-1.99999999999998,['right'],['right'],[0.15446419999989303],[None],[0.13383879999992132],[0.12928889999989224],,,,,,,0,0,0,11,,,,,,,,,,,,,,,,,,,,,,,,,,,,,,,,,,,,,,,,,,,,,0,9,9,9,5.450968400000193,,,,5.437249199999997,5.450968400000193,5.450968400000193,5.450968400000193,5.450968400000193,5.73667660000001,['right'],5.7369961000001695,5.750934000000143,5.750934000000143,5.750934000000143,5.750934000000143,6.036302599999999,['right'],[0.15446419999989303],[None],[0.13383879999992132],[0.12928889999989224],,,,,,,,,,,,,,,,,,,,,,,,,,,,,,,,,,,,332057,001,2025-03-24_15h55.42.515,Estimulo_ICE,2024.2.4,60.393366151068804,2025-03-24 15h55.46.858966 -0300,
Estimulo_12,10,10,0,2.2,-2.2,-2.2,2.2,2.09999999999998,-2.09999999999998,2.09999999999998,-2.09999999999998,['up'],['up'],[0.1941437999998925],[None],[0.11018719999992754],[0.12027580000017224],,,,,,,0,0,0,11,,,,,,,,,,,,,,,,,,,,,,,,,,,,,,,,,,,,,,,,,,,,,0,10,10,10,6.050676500000009,,,,6.036683000000039,6.050676500000009,6.050676500000009,6.050676500000009,6.050676500000009,6.336163800000122,['up'],6.336433900000202,6.350747100000035,6.350747100000035,6.350747100000035,6.350747100000035,6.636349800000062,['up'],[0.1941437999998925],[None],[0.11018719999992754],[0.12027580000017224],,,,,,,,,,,,,,,,,,,,,,,,,,,,,,,,,,,,332057,001,2025-03-24_15h55.42.515,Estimulo_ICE,2024.2.4,60.393366151068804,2025-03-24 15h55.46.858966 -0300,
Estimulo_12,11,11,0,2.2,-2.2,-2.2,2.2,2.19999999999998,-2.19999999999998,2.19999999999998,-2.19999999999998,['right'],['up'],[0.05021080000005895],[None],[0.15011150000009366],[None],,,,,,,0,0,0,11,,,,,,,,,,,,,,,,,,,,,,,,,,,,,,,,,,,,,,,,,,,,,0,11,11,11,6.650642500000004,,,,6.636733800000002,6.650642500000004,6.650642500000004,6.650642500000004,6.650642500000004,6.936215400000037,['right'],6.9364867000001595,6.950797000000193,6.950797000000193,6.950797000000193,6.950797000000193,7.236165700000129,['up'],[0.05021080000005895],[None],[0.15011150000009366],[None],,,,,,,,,,,,,,,,,,,,,,,,,,,,,,,,,,,,332057,001,2025-03-24_15h55.42.515,Estimulo_ICE,2024.2.4,60.393366151068804,2025-03-24 15h55.46.858966 -0300,
Estimulo_12,12,12,0,2.2,-2.2,-2.2,2.2,2.29999999999998,-2.29999999999998,2.29999999999998,-2.29999999999998,['right'],"['up', 'right']",[0.09835969999994632],[None],"[0.20680399999992005, 0.23086160000002565]","[None, None]",,,,,,,0,0,0,11,,,,,,,,,,,,,,,,,,,,,,,,,,,,,,,,,,,,,,,,,,,,,0,12,12,12,7.250776600000108,,,,7.23654670000019,7.250776600000108,7.250776600000108,7.250776600000108,7.250776600000108,7.536191500000086,['right'],7.536459600000171,7.550750700000208,7.550750700000208,7.550750700000208,7.550750700000208,7.836277400000199,"['up', 'right']",[0.09835969999994632],[None],"[0.20680399999992005, 0.23086160000002565]","[None, None]",,,,,,,,,,,,,,,,,,,,,,,,,,,,,,,,,,,,332057,001,2025-03-24_15h55.42.515,Estimulo_ICE,2024.2.4,60.393366151068804,2025-03-24 15h55.46.858966 -0300,
Estimulo_12,13,13,0,2.2,-2.2,-2.2,2.2,2.39999999999998,-2.39999999999998,2.39999999999998,-2.39999999999998,['right'],None,[0.2505063000000973],[None],,,,,,,,,0,0,0,11,,,,,,,,,,,,,,,,,,,,,,,,,,,,,,,,,,,,,,,,,,,,,0,13,13,13,7.850878200000125,,,,7.836659800000007,7.850878200000125,7.850878200000125,7.850878200000125,7.850878200000125,8.136104900000191,['right'],8.136376800000107,8.150757400000202,8.150757400000202,8.150757400000202,8.150757400000202,8.436388800000032,None,[0.2505063000000973],[None],,,,,,,,,,,,,,,,,,,,,,,,,,,,,,,,,,,,,,332057,001,2025-03-24_15h55.42.515,Estimulo_ICE,2024.2.4,60.393366151068804,2025-03-24 15h55.46.858966 -0300,
Estimulo_12,14,14,0,2.2,-2.2,-2.2,2.2,2.49999999999998,-2.49999999999998,2.49999999999998,-2.49999999999998,"['up', 'up']",['right'],"[0.04205080000019734, 0.23391780000019935]","[0.04042759999992995, None]",[0.02214729999991505],[None],,,,,,,0,0,0,11,,,,,,,,,,,,,,,,,,,,,,,,,,,,,,,,,,,,,,,,,,,,,0,14,14,14,8.450845900000104,,,,8.436742600000116,8.450845900000104,8.450845900000104,8.450845900000104,8.450845900000104,8.736387900000182,"['up', 'up']",8.736646800000017,8.750794700000142,8.750794700000142,8.750794700000142,8.750794700000142,9.036187400000017,['right'],"[0.04205080000019734, 0.23391780000019935]","[0.04042759999992995, None]",[0.02214729999991505],[None],,,,,,,,,,,,,,,,,,,,,,,,,,,,,,,,,,,,332057,001,2025-03-24_15h55.42.515,Estimulo_ICE,2024.2.4,60.393366151068804,2025-03-24 15h55.46.858966 -0300,
Estimulo_12,15,15,0,2.2,-2.2,-2.2,2.2,2.59999999999998,-2.59999999999998,2.59999999999998,-2.59999999999998,None,None,,,,,,,,,,,0,0,0,11,,,,,,,,,,,,,,,,,,,,,,,,,,,,,,,,,,,,,,,,,,,,,0,15,15,15,9.050760300000093,,,,9.036570100000063,9.050760300000093,9.050760300000093,9.050760300000093,9.050760300000093,9.336325700000089,None,9.336571800000002,9.350713700000142,9.350713700000142,9.350713700000142,9.350713700000142,9.636112400000002,None,,,,,,,,,,,,,,,,,,,,,,,,,,,,,,,,,,,,,,,,332057,001,2025-03-24_15h55.42.515,Estimulo_ICE,2024.2.4,60.393366151068804,2025-03-24 15h55.46.858966 -0300,
Estimulo_12,16,16,0,2.2,-2.2,-2.2,2.2,2.69999999999998,-2.69999999999998,2.69999999999998,-2.69999999999998,None,None,,,,,,,,,,,0,0,0,11,,,,,,,,,,,,,,,,,,,,,,,,,,,,,,,,,,,,,,,,,,,,,0,16,16,16,9.650746400000116,,,,9.636466800000107,9.650746400000116,9.650746400000116,9.650746400000116,9.650746400000116,9.936271700000134,None,9.93651560000012,9.950871500000176,9.950871500000176,9.950871500000176,9.950871500000176,10.236322200000131,None,,,,,,,,,,,,,,,,,,,,,,,,,,,,,,,,,,,,,,,,332057,001,2025-03-24_15h55.42.515,Estimulo_ICE,2024.2.4,60.393366151068804,2025-03-24 15h55.46.858966 -0300,
Estimulo_12,17,17,0,2.2,-2.2,-2.2,2.2,2.79999999999998,-2.79999999999998,2.79999999999998,-2.79999999999998,None,None,,,,,,,,,,,0,0,0,11,,,,,,,,,,,,,,,,,,,,,,,,,,,,,,,,,,,,,,,,,,,,,0,17,17,17,10.250655600000073,,,,10.236676800000168,10.250655600000073,10.250655600000073,10.250655600000073,10.250655600000073,10.53625420000003,None,10.536498600000186,10.550840200000039,10.550840200000039,10.550840200000039,10.550840200000039,10.836260700000139,None,,,,,,,,,,,,,,,,,,,,,,,,,,,,,,,,,,,,,,,,332057,001,2025-03-24_15h55.42.515,Estimulo_ICE,2024.2.4,60.393366151068804,2025-03-24 15h55.46.858966 -0300,
Estimulo_12,18,18,0,2.2,-2.2,-2.2,2.2,2.89999999999998,-2.89999999999998,2.89999999999998,-2.89999999999998,None,None,,,,,,,,,,,0,0,0,11,,,,,,,,,,,,,,,,,,,,,,,,,,,,,,,,,,,,,,,,,,,,,0,18,18,18,10.850647700000081,,,,10.836614100000133,10.850647700000081,10.850647700000081,10.850647700000081,10.850647700000081,11.136158000000023,None,11.136404200000015,11.150741600000174,11.150741600000174,11.150741600000174,11.150741600000174,11.436338300000216,None,,,,,,,,,,,,,,,,,,,,,,,,,,,,,,,,,,,,,,,,332057,001,2025-03-24_15h55.42.515,Estimulo_ICE,2024.2.4,60.393366151068804,2025-03-24 15h55.46.858966 -0300,
Estimulo_12,19,19,0,2.2,-2.2,-2.2,2.2,2.99999999999998,-2.99999999999998,2.99999999999998,-2.99999999999998,None,None,,,,,,,,,,,0,0,0,11,,,,,,,,,,,,,,,,,,,,,,,,,,,,,,,,,,,,,,,,,,,,,0,19,19,19,11.450745500000039,,,,11.43669460000001,11.450745500000039,11.450745500000039,11.450745500000039,11.450745500000039,11.736450100000184,None,11.736695600000076,11.750711300000148,11.750711300000148,11.750711300000148,11.750711300000148,12.036097900000186,None,,,,,,,,,,,,,,,,,,,,,,,,,,,,,,,,,,,,,,,,332057,001,2025-03-24_15h55.42.515,Estimulo_ICE,2024.2.4,60.393366151068804,2025-03-24 15h55.46.858966 -0300,
Estimulo_12,20,20,0,2.2,-2.2,-2.2,2.2,3.09999999999998,-3.09999999999998,3.09999999999998,-3.09999999999998,None,None,,,,,,,,,,,0,0,0,11,,,,,,,,,,,,,,,,,,,,,,,,,,,,,,,,,,,,,,,,,,,,,0,20,20,20,12.050738200000069,,,,12.036453700000038,12.050738200000069,12.050738200000069,12.050738200000069,12.050738200000069,12.336285100000168,None,12.33653100000015,12.350701300000082,12.350701300000082,12.350701300000082,12.350701300000082,12.636111200000187,None,,,,,,,,,,,,,,,,,,,,,,,,,,,,,,,,,,,,,,,,332057,001,2025-03-24_15h55.42.515,Estimulo_ICE,2024.2.4,60.393366151068804,2025-03-24 15h55.46.858966 -0300,
Estimulo_12,21,21,0,2.2,-2.2,-2.2,2.2,3.19999999999998,-3.19999999999998,3.19999999999998,-3.19999999999998,None,None,,,,,,,,,,,0,0,0,11,,,,,,,,,,,,,,,,,,,,,,,,,,,,,,,,,,,,,,,,,,,,,0,21,21,21,12.650809600000002,,,,12.63647230000015,12.650809600000002,12.650809600000002,12.650809600000002,12.650809600000002,12.936139100000219,None,12.936387400000058,12.950728200000185,12.950728200000185,12.950728200000185,12.950728200000185,13.236253400000123,None,,,,,,,,,,,,,,,,,,,,,,,,,,,,,,,,,,,,,,,,332057,001,2025-03-24_15h55.42.515,Estimulo_ICE,2024.2.4,60.393366151068804,2025-03-24 15h55.46.858966 -0300,
Estimulo_12,22,22,0,2.2,-2.2,-2.2,2.2,3.29999999999998,-3.29999999999998,3.29999999999998,-3.29999999999998,None,None,,,,,,,,,,,0,0,0,11,,,,,,,,,,,,,,,,,,,,,,,,,,,,,,,,,,,,,,,,,,,,,0,22,22,22,13.250815700000203,,,,13.236605200000213,13.250815700000203,13.250815700000203,13.250815700000203,13.250815700000203,13.536116300000003,None,13.536361800000122,13.550699800000075,13.550699800000075,13.550699800000075,13.550699800000075,13.836356100000103,None,,,,,,,,,,,,,,,,,,,,,,,,,,,,,,,,,,,,,,,,332057,001,2025-03-24_15h55.42.515,Estimulo_ICE,2024.2.4,60.393366151068804,2025-03-24 15h55.46.858966 -0300,
Estimulo_12,23,23,0,2.2,-2.2,-2.2,2.2,3.39999999999998,-3.39999999999998,3.39999999999998,-3.39999999999998,None,None,,,,,,,,,,,0,0,0,11,,,,,,,,,,,,,,,,,,,,,,,,,,,,,,,,,,,,,,,,,,,,,0,23,23,23,13.850749700000051,,,,13.836709900000187,13.850749700000051,13.850749700000051,13.850749700000051,13.850749700000051,14.136235700000043,None,14.136481800000183,14.150786700000026,14.150786700000026,14.150786700000026,14.150786700000026,14.436137600000166,None,,,,,,,,,,,,,,,,,,,,,,,,,,,,,,,,,,,,,,,,332057,001,2025-03-24_15h55.42.515,Estimulo_ICE,2024.2.4,60.393366151068804,2025-03-24 15h55.46.858966 -0300,
Estimulo_12,24,24,0,2.2,-2.2,-2.2,2.2,3.49999999999998,-3.49999999999998,3.49999999999998,-3.49999999999998,None,None,,,,,,,,,,,0,0,0,11,,,,,,,,,,,,,,,,,,,,,,,,,,,,,,,,,,,,,,,,,,,,,0,24,24,24,14.450728200000185,,,,14.43649500000015,14.450728200000185,14.450728200000185,14.450728200000185,14.450728200000185,14.736357200000157,None,14.736601100000144,14.75064610000004,14.75064610000004,14.75064610000004,14.75064610000004,15.036240700000008,None,,,,,,,,,,,,,,,,,,,,,,,,,,,,,,,,,,,,,,,,332057,001,2025-03-24_15h55.42.515,Estimulo_ICE,2024.2.4,60.393366151068804,2025-03-24 15h55.46.858966 -0300,
Estimulo_12,25,25,0,2.2,-2.2,-2.2,2.2,3.59999999999998,-3.59999999999998,3.59999999999998,-3.59999999999998,None,None,,,,,,,,,,,0,0,0,11,,,,,,,,,,,,,,,,,,,,,,,,,,,,,,,,,,,,,,,,,,,,,0,25,25,25,15.050743900000043,,,,15.036595900000066,15.050743900000043,15.050743900000043,15.050743900000043,15.050743900000043,15.336217400000123,None,15.336462100000062,15.35085220000019,15.35085220000019,15.35085220000019,15.35085220000019,15.63622690000011,None,,,,,,,,,,,,,,,,,,,,,,,,,,,,,,,,,,,,,,,,332057,001,2025-03-24_15h55.42.515,Estimulo_ICE,2024.2.4,60.393366151068804,2025-03-24 15h55.46.858966 -0300,
Estimulo_12,26,26,0,2.2,-2.2,-2.2,2.2,3.69999999999998,-3.69999999999998,3.69999999999998,-3.69999999999998,None,None,,,,,,,,,,,0,0,0,11,,,,,,,,,,,,,,,,,,,,,,,,,,,,,,,,,,,,,,,,,,,,,0,26,26,26,15.650805900000023,,,,15.636577100000068,15.650805900000023,15.650805900000023,15.650805900000023,15.650805900000023,15.936284900000146,None,15.93653200000017,15.950719400000025,15.950719400000025,15.950719400000025,15.950719400000025,16.2362720000001,None,,,,,,,,,,,,,,,,,,,,,,,,,,,,,,,,,,,,,,,,332057,001,2025-03-24_15h55.42.515,Estimulo_ICE,2024.2.4,60.393366151068804,2025-03-24 15h55.46.858966 -0300,
Estimulo_12,27,27,0,2.2,-2.2,-2.2,2.2,3.79999999999998,-3.79999999999998,3.79999999999998,-3.79999999999998,None,None,,,,,,,,,,,0,0,0,11,,,,,,,,,,,,,,,,,,,,,,,,,,,,,,,,,,,,,,,,,,,,,0,27,27,27,16.25072390000014,,,,16.236625100000083,16.25072390000014,16.25072390000014,16.25072390000014,16.25072390000014,16.5363198,None,16.536567400000195,16.550742300000138,16.550742300000138,16.550742300000138,16.550742300000138,16.836237500000152,None,,,,,,,,,,,,,,,,,,,,,,,,,,,,,,,,,,,,,,,,332057,001,2025-03-24_15h55.42.515,Estimulo_ICE,2024.2.4,60.393366151068804,2025-03-24 15h55.46.858966 -0300,
Estimulo_12,28,28,0,2.2,-2.2,-2.2,2.2,3.89999999999998,-3.89999999999998,3.89999999999998,-3.89999999999998,None,None,,,,,,,,,,,0,0,0,11,,,,,,,,,,,,,,,,,,,,,,,,,,,,,,,,,,,,,,,,,,,,,0,28,28,28,16.850796400000036,,,,16.83659690000013,16.850796400000036,16.850796400000036,16.850796400000036,16.850796400000036,17.13619400000016,None,17.136442500000157,17.150718400000187,17.150718400000187,17.150718400000187,17.150718400000187,17.43623660000003,None,,,,,,,,,,,,,,,,,,,,,,,,,,,,,,,,,,,,,,,,332057,001,2025-03-24_15h55.42.515,Estimulo_ICE,2024.2.4,60.393366151068804,2025-03-24 15h55.46.858966 -0300,
Estimulo_12,29,29,0,2.2,-2.2,-2.2,2.2,3.99999999999998,-3.99999999999998,3.99999999999998,-3.99999999999998,None,None,,,,,,,,,,,0,0,0,11,,,,,,,,,,,,,,,,,,,,,,,,,,,,,,,,,,,,,,,,,,,,,0,29,29,29,17.45061970000006,,,,17.43659760000014,17.45061970000006,17.45061970000006,17.45061970000006,17.45061970000006,17.73643630000015,None,17.736683100000164,17.750628200000165,17.750628200000165,17.750628200000165,17.750628200000165,18.036388400000078,None,,,,,,,,,,,,,,,,,,,,,,,,,,,,,,,,,,,,,,,,332057,001,2025-03-24_15h55.42.515,Estimulo_ICE,2024.2.4,60.393366151068804,2025-03-24 15h55.46.858966 -0300,
Estimulo_12,30,30,0,2.2,-2.2,-2.2,2.2,4.09999999999998,-4.09999999999998,4.09999999999998,-4.09999999999998,None,None,,,,,,,,,,,0,0,0,11,,,,,,,,,,,,,,,,,,,,,,,,,,,,,,,,,,,,,,,,,,,,,0,30,30,30,18.050728000000163,,,,18.0367540000002,18.050728000000163,18.050728000000163,18.050728000000163,18.050728000000163,18.336234400000194,None,18.3364818,18.3506883,18.3506883,18.3506883,18.3506883,18.636321100000032,None,,,,,,,,,,,,,,,,,,,,,,,,,,,,,,,,,,,,,,,,332057,001,2025-03-24_15h55.42.515,Estimulo_ICE,2024.2.4,60.393366151068804,2025-03-24 15h55.46.858966 -0300,
Estimulo_12,31,31,0,2.2,-2.2,-2.2,2.2,4.19999999999998,-4.19999999999998,4.19999999999998,-4.19999999999998,None,None,,,,,,,,,,,0,0,0,11,,,,,,,,,,,,,,,,,,,,,,,,,,,,,,,,,,,,,,,,,,,,,0,31,31,31,18.650599600000078,,,,18.636678400000164,18.650599600000078,18.650599600000078,18.650599600000078,18.650599600000078,18.93617500000005,None,18.936423800000057,18.95079520000013,18.95079520000013,18.95079520000013,18.95079520000013,19.236278400000174,None,,,,,,,,,,,,,,,,,,,,,,,,,,,,,,,,,,,,,,,,332057,001,2025-03-24_15h55.42.515,Estimulo_ICE,2024.2.4,60.393366151068804,2025-03-24 15h55.46.858966 -0300,
Estimulo_12,32,32,0,2.2,-2.2,-2.2,2.2,4.29999999999998,-4.29999999999998,4.29999999999998,-4.29999999999998,None,None,,,,,,,,,,,0,0,0,11,,,,,,,,,,,,,,,,,,,,,,,,,,,,,,,,,,,,,,,,,,,,,0,32,32,32,19.250620800000206,,,,19.236645800000133,19.250620800000206,19.250620800000206,19.250620800000206,19.250620800000206,19.536306500000137,None,19.536555200000066,19.550557400000116,19.550557400000116,19.550557400000116,19.550557400000116,19.83625330000018,None,,,,,,,,,,,,,,,,,,,,,,,,,,,,,,,,,,,,,,,,332057,001,2025-03-24_15h55.42.515,Estimulo_ICE,2024.2.4,60.393366151068804,2025-03-24 15h55.46.858966 -0300,
Estimulo_12,33,33,0,2.2,-2.2,-2.2,2.2,4.39999999999998,-4.39999999999998,4.39999999999998,-4.39999999999998,None,None,,,,,,,,,,,0,0,0,11,,,,,,,,,,,,,,,,,,,,,,,,,,,,,,,,,,,,,,,,,,,,,0,33,33,33,19.850776900000028,,,,19.83660800000007,19.850776900000028,19.850776900000028,19.850776900000028,19.850776900000028,20.13610390000008,None,20.136352800000168,20.15069070000004,20.15069070000004,20.15069070000004,20.15069070000004,20.436086800000112,None,,,,,,,,,,,,,,,,,,,,,,,,,,,,,,,,,,,,,,,,332057,001,2025-03-24_15h55.42.515,Estimulo_ICE,2024.2.4,60.393366151068804,2025-03-24 15h55.46.858966 -0300,
Estimulo_12,0,0,0,,,,,,,,,,,,,,,,,,,,,0,0,0,11,,,,,,,,,,,,,,,,,,,,,,,,,,,,,,,,,,,,,,,,,,,,,,,,,,,,,,,,,,,,,,,,,,,,,,,20.44104090000019,20.450756300000194,21.936211900000217,,,,,,,,,,,,,,,,,,,,,,,,,,,,,,,,,332057,001,2025-03-24_15h55.42.515,Estimulo_ICE,2024.2.4,60.393366151068804,2025-03-24 15h55.46.858966 -0300,
Estimulo_7,0,0,0,2.2,-2.2,-2.2,2.2,4.4,-4.4,4.4,-4.4,,,,,,,None,['up'],[0.19547450000004574],[None],,,0,1,1,6,,,,,,,,,,,,,,,,,,,,,,,,,0,0,0,0,,,,,,,,,,,,,,,,,,,,,22.033759800000098,,21.936328500000172,21.93670770000017,,,,,,,,,,,,,,,,,,,,,,22.020889000000125,22.033759800000098,22.033759800000098,22.033759800000098,22.033759800000098,22.23682050000002,None,22.23706170000014,22.250607000000173,22.250607000000173,22.250607000000173,22.250607000000173,22.550658900000144,22.550658900000144,22.550658900000144,22.550658900000144,22.53669980000018,['up'],[0.19547450000004574],[None],,,,,,,,,,,,,332057,001,2025-03-24_15h55.42.515,Estimulo_ICE,2024.2.4,60.393366151068804,2025-03-24 15h55.46.858966 -0300,
Estimulo_7,1,1,0,2.2,-2.2,-2.2,2.2,4.3,-4.3,4.3,-4.3,,,,,,,None,['up'],[0.20135189999996328],[None],,,0,1,1,6,,,,,,,,,,,,,,,,,,,,,,,,,0,1,1,1,,,,,,,,,,,,,,,,,,,,,22.550658900000144,,,,,,,,,,,,,,,,,,,,,,,,,22.537113500000032,22.550658900000144,22.550658900000144,22.550658900000144,22.550658900000144,22.839037700000063,None,22.839516400000093,22.851648100000148,22.851648100000148,22.851648100000148,22.851648100000148,,,,,23.136972900000046,['up'],[0.20135189999996328],[None],,,,,,,,,,,,,332057,001,2025-03-24_15h55.42.515,Estimulo_ICE,2024.2.4,60.393366151068804,2025-03-24 15h55.46.858966 -0300,
Estimulo_7,2,2,0,2.2,-2.2,-2.2,2.2,4.2,-4.2,4.2,-4.2,,,,,,,['right'],['right'],[0.2593739999999798],[None],[0.2623145000000022],[None],0,1,1,6,,,,,,,,,,,,,,,,,,,,,,,,,0,2,2,2,,,,,,,,,,,,,,,,,,,,,23.150654700000132,,,,,,,,,,,,,,,,,,,,,,,,,23.137460300000157,23.150654700000132,23.150654700000132,23.150654700000132,23.150654700000132,23.436614899999995,['right'],23.43690760000004,23.450662000000193,23.450662000000193,23.450662000000193,23.450662000000193,23.75063450000016,23.75063450000016,23.75063450000016,23.75063450000016,23.736515400000144,['right'],[0.2593739999999798],[None],23.450662000000193,23.450662000000193,23.450662000000193,23.450662000000193,[0.2623145000000022],[None],,,,,,,332057,001,2025-03-24_15h55.42.515,Estimulo_ICE,2024.2.4,60.393366151068804,2025-03-24 15h55.46.858966 -0300,
Estimulo_7,3,3,0,2.2,-2.2,-2.2,2.2,4.1,-4.1,4.1,-4.1,,,,,,,['right'],['right'],[0.1309123000000909],[0.11162699999999859],[0.19144329999994625],[None],0,1,1,6,,,,,,,,,,,,,,,,,,,,,,,,,0,3,3,3,,,,,,,,,,,,,,,,,,,,,23.75063450000016,,,,,,,,,,,,,,,,,,,,,,,,,23.736927200000082,23.75063450000016,23.75063450000016,23.75063450000016,23.75063450000016,24.036876500000062,['right'],24.037167900000213,24.050724300000184,24.050724300000184,24.050724300000184,24.050724300000184,24.35069230000022,24.35069230000022,24.35069230000022,24.35069230000022,24.336443400000007,['right'],[0.1309123000000909],[0.11162699999999859],24.050724300000184,24.050724300000184,24.050724300000184,24.050724300000184,[0.19144329999994625],[None],,,,,,,332057,001,2025-03-24_15h55.42.515,Estimulo_ICE,2024.2.4,60.393366151068804,2025-03-24 15h55.46.858966 -0300,
Estimulo_7,4,4,0,2.2,-2.2,-2.2,2.2,4,-4,4,-4,,,,,,,['right'],None,,,[0.07008300000006784],[0.10470830000008391],0,1,1,6,,,,,,,,,,,,,,,,,,,,,,,,,0,4,4,4,,,,,,,,,,,,,,,,,,,,,24.35069230000022,,,,,,,,,,,,,,,,,,,,,,,,,24.336854700000004,24.35069230000022,24.35069230000022,24.35069230000022,24.35069230000022,24.636674700000185,['right'],24.636956100000134,24.650572900000043,24.650572900000043,24.650572900000043,24.650572900000043,24.950756400000046,24.950756400000046,24.950756400000046,24.950756400000046,24.936771399999998,None,,,24.650572900000043,24.650572900000043,24.650572900000043,24.650572900000043,[0.07008300000006784],[0.10470830000008391],,,,,,,332057,001,2025-03-24_15h55.42.515,Estimulo_ICE,2024.2.4,60.393366151068804,2025-03-24 15h55.46.858966 -0300,
Estimulo_7,5,5,0,2.2,-2.2,-2.2,2.2,3.9,-3.9,3.9,-3.9,,,,,,,None,None,,,,,0,1,1,6,,,,,,,,,,,,,,,,,,,,,,,,,0,5,5,5,,,,,,,,,,,,,,,,,,,,,24.950756400000046,,,,,,,,,,,,,,,,,,,,,,,,,24.937150900000006,24.950756400000046,24.950756400000046,24.950756400000046,24.950756400000046,25.23658350000005,None,25.236837500000092,25.250749300000052,25.250749300000052,25.250749300000052,25.250749300000052,25.550638300000173,25.550638300000173,25.550638300000173,25.550638300000173,25.53665990000013,None,,,25.250749300000052,25.250749300000052,25.250749300000052,25.250749300000052,,,,,,,,,332057,001,2025-03-24_15h55.42.515,Estimulo_ICE,2024.2.4,60.393366151068804,2025-03-24 15h55.46.858966 -0300,
Estimulo_7,6,6,0,2.2,-2.2,-2.2,2.2,3.8,-3.8,3.8,-3.8,,,,,,,None,None,,,,,0,1,1,6,,,,,,,,,,,,,,,,,,,,,,,,,0,6,6,6,,,,,,,,,,,,,,,,,,,,,25.550638300000173,,,,,,,,,,,,,,,,,,,,,,,,,25.53703870000004,25.550638300000173,25.550638300000173,25.550638300000173,25.550638300000173,25.836790800000017,None,25.837058900000102,25.850628900000174,25.850628900000174,25.850628900000174,25.850628900000174,26.15064940000002,26.15064940000002,26.15064940000002,26.15064940000002,26.136824200000092,None,,,25.850628900000174,25.850628900000174,25.850628900000174,25.850628900000174,,,,,,,,,332057,001,2025-03-24_15h55.42.515,Estimulo_ICE,2024.2.4,60.393366151068804,2025-03-24 15h55.46.858966 -0300,
Estimulo_7,7,7,0,2.2,-2.2,-2.2,2.2,3.7,-3.7,3.7,-3.7,,,,,,,None,None,,,,,0,1,1,6,,,,,,,,,,,,,,,,,,,,,,,,,0,7,7,7,,,,,,,,,,,,,,,,,,,,,26.15064940000002,,,,,,,,,,,,,,,,,,,,,,,,,26.13720350000017,26.15064940000002,26.15064940000002,26.15064940000002,26.15064940000002,26.436777900000152,None,26.437031800000113,26.45074560000012,26.45074560000012,26.45074560000012,26.45074560000012,26.750669600000037,26.750669600000037,26.750669600000037,26.750669600000037,26.73669820000009,None,,,26.45074560000012,26.45074560000012,26.45074560000012,26.45074560000012,,,,,,,,,332057,001,2025-03-24_15h55.42.515,Estimulo_ICE,2024.2.4,60.393366151068804,2025-03-24 15h55.46.858966 -0300,
Estimulo_7,8,8,0,2.2,-2.2,-2.2,2.2,3.6,-3.6,3.6,-3.6,,,,,,,None,None,,,,,0,1,1,6,,,,,,,,,,,,,,,,,,,,,,,,,0,8,8,8,,,,,,,,,,,,,,,,,,,,,26.750669600000037,,,,,,,,,,,,,,,,,,,,,,,,,26.73707780000018,26.750669600000037,26.750669600000037,26.750669600000037,26.750669600000037,27.036607600000025,None,27.03687190000005,27.050631300000077,27.050631300000077,27.050631300000077,27.050631300000077,27.350735000000213,27.350735000000213,27.350735000000213,27.350735000000213,27.33661210000014,None,,,27.050631300000077,27.050631300000077,27.050631300000077,27.050631300000077,,,,,,,,,332057,001,2025-03-24_15h55.42.515,Estimulo_ICE,2024.2.4,60.393366151068804,2025-03-24 15h55.46.858966 -0300,
Estimulo_7,9,9,0,2.2,-2.2,-2.2,2.2,3.5,-3.5,3.5,-3.5,,,,,,,"['up', 'up']",['up'],[0.17814129999987927],[0.08006079999995563],"[0.006638300000076924, 0.2467025000000831]","[0.11942019999992226, None]",0,1,1,6,,,,,,,,,,,,,,,,,,,,,,,,,0,9,9,9,,,,,,,,,,,,,,,,,,,,,27.350735000000213,,,,,,,,,,,,,,,,,,,,,,,,,27.336991600000147,27.350735000000213,27.350735000000213,27.350735000000213,27.350735000000213,27.63668920000009,"['up', 'up']",27.636984100000063,27.650740300000052,27.650740300000052,27.650740300000052,27.650740300000052,27.950740400000086,27.950740400000086,27.950740400000086,27.950740400000086,27.93645790000005,['up'],[0.17814129999987927],[0.08006079999995563],27.650740300000052,27.650740300000052,27.650740300000052,27.650740300000052,"[0.006638300000076924, 0.2467025000000831]","[0.11942019999992226, None]",,,,,,,332057,001,2025-03-24_15h55.42.515,Estimulo_ICE,2024.2.4,60.393366151068804,2025-03-24 15h55.46.858966 -0300,
Estimulo_7,10,10,0,2.2,-2.2,-2.2,2.2,3.39999999999999,-3.39999999999999,3.39999999999999,-3.39999999999999,,,,,,,['up'],['up'],[0.08300769999982549],[0.07242540000015651],[0.1107737999998335],[0.07171360000006644],0,1,1,6,,,,,,,,,,,,,,,,,,,,,,,,,0,10,10,10,,,,,,,,,,,,,,,,,,,,,27.950740400000086,,,,,,,,,,,,,,,,,,,,,,,,,27.936882100000048,27.950740400000086,27.950740400000086,27.950740400000086,27.950740400000086,28.236683200000016,['up'],28.236961199999996,28.250639900000124,28.250639900000124,28.250639900000124,28.250639900000124,28.55062020000014,28.55062020000014,28.55062020000014,28.55062020000014,28.53680660000009,['up'],[0.08300769999982549],[0.07242540000015651],28.250639900000124,28.250639900000124,28.250639900000124,28.250639900000124,[0.1107737999998335],[0.07171360000006644],,,,,,,332057,001,2025-03-24_15h55.42.515,Estimulo_ICE,2024.2.4,60.393366151068804,2025-03-24 15h55.46.858966 -0300,
Estimulo_7,11,11,0,2.2,-2.2,-2.2,2.2,3.29999999999999,-3.29999999999999,3.29999999999999,-3.29999999999999,,,,,,,['up'],['up'],[0.09021340000003875],[0.08849879999979748],[0.09417340000004515],[0.08005830000001879],0,1,1,6,,,,,,,,,,,,,,,,,,,,,,,,,0,11,11,11,,,,,,,,,,,,,,,,,,,,,28.55062020000014,,,,,,,,,,,,,,,,,,,,,,,,,28.53721910000013,28.55062020000014,28.55062020000014,28.55062020000014,28.55062020000014,28.836449700000003,['up'],28.836728500000163,28.850709300000062,28.850709300000062,28.850709300000062,28.850709300000062,29.150626000000102,29.150626000000102,29.150626000000102,29.150626000000102,29.1364887000002,['up'],[0.09021340000003875],[0.08849879999979748],28.850709300000062,28.850709300000062,28.850709300000062,28.850709300000062,[0.09417340000004515],[0.08005830000001879],,,,,,,332057,001,2025-03-24_15h55.42.515,Estimulo_ICE,2024.2.4,60.393366151068804,2025-03-24 15h55.46.858966 -0300,
Estimulo_7,12,12,0,2.2,-2.2,-2.2,2.2,3.19999999999999,-3.19999999999999,3.19999999999999,-3.19999999999999,,,,,,,['up'],['right'],[0.1788573000001179],[0.07132809999984602],[0.10244289999991452],[0.08906260000003385],0,1,1,6,,,,,,,,,,,,,,,,,,,,,,,,,0,12,12,12,,,,,,,,,,,,,,,,,,,,,29.150626000000102,,,,,,,,,,,,,,,,,,,,,,,,,29.136898700000074,29.150626000000102,29.150626000000102,29.150626000000102,29.150626000000102,29.437236100000064,['up'],29.43752110000014,29.45059850000007,29.45059850000007,29.45059850000007,29.45059850000007,29.750485400000116,29.750485400000116,29.750485400000116,29.750485400000116,29.736627,['right'],[0.1788573000001179],[0.07132809999984602],29.45059850000007,29.45059850000007,29.45059850000007,29.45059850000007,[0.10244289999991452],[0.08906260000003385],,,,,,,332057,001,2025-03-24_15h55.42.515,Estimulo_ICE,2024.2.4,60.393366151068804,2025-03-24 15h55.46.858966 -0300,
Estimulo_7,13,13,0,2.2,-2.2,-2.2,2.2,3.09999999999999,-3.09999999999999,3.09999999999999,-3.09999999999999,,,,,,,['right'],['up'],[0.08269159999986186],[0.07226869999999508],[0.11134839999999713],[0.10296789999983957],0,1,1,6,,,,,,,,,,,,,,,,,,,,,,,,,0,13,13,13,,,,,,,,,,,,,,,,,,,,,29.750485400000116,,,,,,,,,,,,,,,,,,,,,,,,,29.737040000000206,29.750485400000116,29.750485400000116,29.750485400000116,29.750485400000116,30.036789500000168,['right'],30.03708040000015,30.050650600000154,30.050650600000154,30.050650600000154,30.050650600000154,30.350592300000017,30.350592300000017,30.350592300000017,30.350592300000017,30.336765600000035,['up'],[0.08269159999986186],[0.07226869999999508],30.050650600000154,30.050650600000154,30.050650600000154,30.050650600000154,[0.11134839999999713],[0.10296789999983957],,,,,,,332057,001,2025-03-24_15h55.42.515,Estimulo_ICE,2024.2.4,60.393366151068804,2025-03-24 15h55.46.858966 -0300,
Estimulo_7,14,14,0,2.2,-2.2,-2.2,2.2,2.99999999999999,-2.99999999999999,2.99999999999999,-2.99999999999999,,,,,,,['up'],None,,,[0.006714299999885043],[0.07932230000005802],0,1,1,6,,,,,,,,,,,,,,,,,,,,,,,,,0,14,14,14,,,,,,,,,,,,,,,,,,,,,30.350592300000017,,,,,,,,,,,,,,,,,,,,,,,,,30.33716010000012,30.350592300000017,30.350592300000017,30.350592300000017,30.350592300000017,30.636648800000103,['up'],30.636928300000136,30.650541800000155,30.650541800000155,30.650541800000155,30.650541800000155,30.950630300000057,30.950630300000057,30.950630300000057,30.950630300000057,30.936655700000074,None,,,30.650541800000155,30.650541800000155,30.650541800000155,30.650541800000155,[0.006714299999885043],[0.07932230000005802],,,,,,,332057,001,2025-03-24_15h55.42.515,Estimulo_ICE,2024.2.4,60.393366151068804,2025-03-24 15h55.46.858966 -0300,
Estimulo_7,15,15,0,2.2,-2.2,-2.2,2.2,2.89999999999999,-2.89999999999999,2.89999999999999,-2.89999999999999,,,,,,,None,None,,,,,0,1,1,6,,,,,,,,,,,,,,,,,,,,,,,,,0,15,15,15,,,,,,,,,,,,,,,,,,,,,30.950630300000057,,,,,,,,,,,,,,,,,,,,,,,,,30.937039600000162,30.950630300000057,30.950630300000057,30.950630300000057,30.950630300000057,31.23656760000017,None,31.23683250000022,31.250726400000076,31.250726400000076,31.250726400000076,31.250726400000076,31.5506355,31.5506355,31.5506355,31.5506355,31.536464400000114,None,,,31.250726400000076,31.250726400000076,31.250726400000076,31.250726400000076,,,,,,,,,332057,001,2025-03-24_15h55.42.515,Estimulo_ICE,2024.2.4,60.393366151068804,2025-03-24 15h55.46.858966 -0300,
Estimulo_7,16,16,0,2.2,-2.2,-2.2,2.2,2.79999999999999,-2.79999999999999,2.79999999999999,-2.79999999999999,,,,,,,None,None,,,,,0,1,1,6,,,,,,,,,,,,,,,,,,,,,,,,,0,16,16,16,,,,,,,,,,,,,,,,,,,,,31.5506355,,,,,,,,,,,,,,,,,,,,,,,,,31.536846100000048,31.5506355,31.5506355,31.5506355,31.5506355,31.836686800000052,None,31.836946900000157,31.850596500000165,31.850596500000165,31.850596500000165,31.850596500000165,32.150622900000144,32.150622900000144,32.150622900000144,32.150622900000144,32.13665970000011,None,,,31.850596500000165,31.850596500000165,31.850596500000165,31.850596500000165,,,,,,,,,332057,001,2025-03-24_15h55.42.515,Estimulo_ICE,2024.2.4,60.393366151068804,2025-03-24 15h55.46.858966 -0300,
Estimulo_7,17,17,0,2.2,-2.2,-2.2,2.2,2.69999999999999,-2.69999999999999,2.69999999999999,-2.69999999999999,,,,,,,['up'],"['up', 'up']","[0.04211899999995694, 0.25004779999994753]","[0.0728994999999486, None]",[0.1272994999999355],[0.06365130000017416],0,1,1,6,,,,,,,,,,,,,,,,,,,,,,,,,0,17,17,17,,,,,,,,,,,,,,,,,,,,,32.150622900000144,,,,,,,,,,,,,,,,,,,,,,,,,32.137041800000134,32.150622900000144,32.150622900000144,32.150622900000144,32.150622900000144,32.43647940000005,['up'],32.43676960000016,32.45068020000008,32.45068020000008,32.45068020000008,32.45068020000008,32.75048970000012,32.75048970000012,32.75048970000012,32.75048970000012,32.736503100000164,"['up', 'up']","[0.04211899999995694, 0.25004779999994753]","[0.0728994999999486, None]",32.45068020000008,32.45068020000008,32.45068020000008,32.45068020000008,[0.1272994999999355],[0.06365130000017416],,,,,,,332057,001,2025-03-24_15h55.42.515,Estimulo_ICE,2024.2.4,60.393366151068804,2025-03-24 15h55.46.858966 -0300,
Estimulo_7,18,18,0,2.2,-2.2,-2.2,2.2,2.59999999999999,-2.59999999999999,2.59999999999999,-2.59999999999999,,,,,,,['up'],['up'],[0.12120219999997062],[0.05597239999997328],[0.1748696000001928],[0.07942979999984345],0,1,1,6,,,,,,,,,,,,,,,,,,,,,,,,,0,18,18,18,,,,,,,,,,,,,,,,,,,,,32.75048970000012,,,,,,,,,,,,,,,,,,,,,,,,,32.736917000000176,32.75048970000012,32.75048970000012,32.75048970000012,32.75048970000012,33.0397816000002,['up'],33.0403881000002,33.0517026,33.0517026,33.0517026,33.0517026,,,,,33.33969220000017,['up'],[0.12120219999997062],[0.05597239999997328],,,,,[0.1748696000001928],[0.07942979999984345],,,,,,,332057,001,2025-03-24_15h55.42.515,Estimulo_ICE,2024.2.4,60.393366151068804,2025-03-24 15h55.46.858966 -0300,
Estimulo_7,19,19,0,2.2,-2.2,-2.2,2.2,2.49999999999999,-2.49999999999999,2.49999999999999,-2.49999999999999,,,,,,,['up'],['up'],[0.049316200000021126],[0.06431339999994634],[0.06885880000004363],[0.048394799999869065],0,1,1,6,,,,,,,,,,,,,,,,,,,,,,,,,0,19,19,19,,,,,,,,,,,,,,,,,,,,,33.35183350000011,,,,,,,,,,,,,,,,,,,,,,,,,33.34060520000003,33.35183350000011,33.35183350000011,33.35183350000011,33.35183350000011,33.63984460000006,['up'],33.64048230000003,33.651731600000176,33.651731600000176,33.651731600000176,33.651731600000176,33.95062710000002,33.95062710000002,33.95062710000002,33.95062710000002,33.93678550000004,['up'],[0.049316200000021126],[0.06431339999994634],,,,,[0.06885880000004363],[0.048394799999869065],,,,,,,332057,001,2025-03-24_15h55.42.515,Estimulo_ICE,2024.2.4,60.393366151068804,2025-03-24 15h55.46.858966 -0300,
Estimulo_7,20,20,0,2.2,-2.2,-2.2,2.2,2.39999999999999,-2.39999999999999,2.39999999999999,-2.39999999999999,,,,,,,"['up', 'up']",None,,,"[0.022214800000028845, 0.2627941999999166]","[0.04838760000006914, None]",0,1,1,6,,,,,,,,,,,,,,,,,,,,,,,,,0,20,20,20,,,,,,,,,,,,,,,,,,,,,33.95062710000002,,,,,,,,,,,,,,,,,,,,,,,,,33.93715030000021,33.95062710000002,33.95062710000002,33.95062710000002,33.95062710000002,34.23666000000003,"['up', 'up']",34.23693320000007,34.250824400000056,34.250824400000056,34.250824400000056,34.250824400000056,34.55057020000004,34.55057020000004,34.55057020000004,34.55057020000004,34.53639440000006,None,,,34.250824400000056,34.250824400000056,34.250824400000056,34.250824400000056,"[0.022214800000028845, 0.2627941999999166]","[0.04838760000006914, None]",,,,,,,332057,001,2025-03-24_15h55.42.515,Estimulo_ICE,2024.2.4,60.393366151068804,2025-03-24 15h55.46.858966 -0300,
Estimulo_7,21,21,0,2.2,-2.2,-2.2,2.2,2.29999999999999,-2.29999999999999,2.29999999999999,-2.29999999999999,,,,,,,None,['up'],[0.2264285999999629],[None],,,0,1,1,6,,,,,,,,,,,,,,,,,,,,,,,,,0,21,21,21,,,,,,,,,,,,,,,,,,,,,34.55057020000004,,,,,,,,,,,,,,,,,,,,,,,,,34.53674030000002,34.55057020000004,34.55057020000004,34.55057020000004,34.55057020000004,34.83897810000008,None,34.83945700000004,34.85073970000008,34.85073970000008,34.85073970000008,34.85073970000008,35.15060070000004,35.15060070000004,35.15060070000004,35.15060070000004,35.13727310000013,['up'],[0.2264285999999629],[None],,,,,,,,,,,,,332057,001,2025-03-24_15h55.42.515,Estimulo_ICE,2024.2.4,60.393366151068804,2025-03-24 15h55.46.858966 -0300,
Estimulo_7,22,22,0,2.2,-2.2,-2.2,2.2,2.19999999999999,-2.19999999999999,2.19999999999999,-2.19999999999999,,,,,,,['up'],['up'],[0.22731100000009974],[None],[0.11873949999994693],[0.06383500000015374],0,1,1,6,,,,,,,,,,,,,,,,,,,,,,,,,0,22,22,22,,,,,,,,,,,,,,,,,,,,,35.15060070000004,,,,,,,,,,,,,,,,,,,,,,,,,35.137753500000144,35.15060070000004,35.15060070000004,35.15060070000004,35.15060070000004,35.43661030000021,['up'],35.436901100000114,35.45061910000004,35.45061910000004,35.45061910000004,35.45061910000004,35.75053930000013,35.75053930000013,35.75053930000013,35.75053930000013,35.736491400000205,['up'],[0.22731100000009974],[None],35.45061910000004,35.45061910000004,35.45061910000004,35.45061910000004,[0.11873949999994693],[0.06383500000015374],,,,,,,332057,001,2025-03-24_15h55.42.515,Estimulo_ICE,2024.2.4,60.393366151068804,2025-03-24 15h55.46.858966 -0300,
Estimulo_7,23,23,0,2.2,-2.2,-2.2,2.2,2.09999999999999,-2.09999999999999,2.09999999999999,-2.09999999999999,,,,,,,['up'],"['up', 'up']","[0.010803599999917424, 0.2102093999999397]","[0.06401310000001104, None]",[0.10241619999987961],[0.07985350000012659],0,1,1,6,,,,,,,,,,,,,,,,,,,,,,,,,0,23,23,23,,,,,,,,,,,,,,,,,,,,,35.75053930000013,,,,,,,,,,,,,,,,,,,,,,,,,35.73689350000018,35.75053930000013,35.75053930000013,35.75053930000013,35.75053930000013,36.0364247,['up'],36.036718199999996,36.050622200000134,36.050622200000134,36.050622200000134,36.050622200000134,36.350632500000074,36.350632500000074,36.350632500000074,36.350632500000074,36.336901100000205,"['up', 'up']","[0.010803599999917424, 0.2102093999999397]","[0.06401310000001104, None]",36.050622200000134,36.050622200000134,36.050622200000134,36.050622200000134,[0.10241619999987961],[0.07985350000012659],,,,,,,332057,001,2025-03-24_15h55.42.515,Estimulo_ICE,2024.2.4,60.393366151068804,2025-03-24 15h55.46.858966 -0300,
Estimulo_7,24,24,0,2.2,-2.2,-2.2,2.2,1.99999999999999,-1.99999999999999,1.99999999999999,-1.99999999999999,,,,,,,['up'],['up'],[0.010194199999887132],[0.0724872000000687],[0.11011010000015631],[0.07287569999994048],0,1,1,6,,,,,,,,,,,,,,,,,,,,,,,,,0,24,24,24,,,,,,,,,,,,,,,,,,,,,36.350632500000074,,,,,,,,,,,,,,,,,,,,,,,,,36.33731290000014,36.350632500000074,36.350632500000074,36.350632500000074,36.350632500000074,36.636797300000126,['up'],36.637087600000086,36.65059240000005,36.65059240000005,36.65059240000005,36.65059240000005,36.95048970000016,36.95048970000016,36.95048970000016,36.95048970000016,36.936607400000184,['up'],[0.010194199999887132],[0.0724872000000687],36.65059240000005,36.65059240000005,36.65059240000005,36.65059240000005,[0.11011010000015631],[0.07287569999994048],,,,,,,332057,001,2025-03-24_15h55.42.515,Estimulo_ICE,2024.2.4,60.393366151068804,2025-03-24 15h55.46.858966 -0300,
Estimulo_7,25,25,0,2.2,-2.2,-2.2,2.2,1.89999999999999,-1.89999999999999,1.89999999999999,-1.89999999999999,,,,,,,['up'],['up'],[0.09932870000011462],[0.07193110000002889],[-0.008603100000073027],[0.05522020000012162],0,1,1,6,,,,,,,,,,,,,,,,,,,,,,,,,0,25,25,25,,,,,,,,,,,,,,,,,,,,,36.95048970000016,,,,,,,,,,,,,,,,,,,,,,,,,36.937021000000186,36.95048970000016,36.95048970000016,36.95048970000016,36.95048970000016,37.23645660000011,['up'],37.23674380000011,37.250607400000035,37.250607400000035,37.250607400000035,37.250607400000035,37.55055760000005,37.55055760000005,37.55055760000005,37.55055760000005,37.536853100000144,['up'],[0.09932870000011462],[0.07193110000002889],37.250607400000035,37.250607400000035,37.250607400000035,37.250607400000035,[-0.008603100000073027],[0.05522020000012162],,,,,,,332057,001,2025-03-24_15h55.42.515,Estimulo_ICE,2024.2.4,60.393366151068804,2025-03-24 15h55.46.858966 -0300,
Estimulo_7,26,26,0,2.2,-2.2,-2.2,2.2,1.79999999999999,-1.79999999999999,1.79999999999999,-1.79999999999999,,,,,,,"['up', 'up']","['up', 'up']","[0.10751349999986815, 0.26606109999988803]","[0.015996800000039002, None]","[-0.0008695000001353037, 0.1906655000000228]","[0.05588860000011664, 0.04887850000000071]",0,1,1,6,,,,,,,,,,,,,,,,,,,,,,,,,0,26,26,26,,,,,,,,,,,,,,,,,,,,,37.55055760000005,,,,,,,,,,,,,,,,,,,,,,,,,37.5372648,37.55055760000005,37.55055760000005,37.55055760000005,37.55055760000005,37.8364567000001,"['up', 'up']",37.83674840000003,37.85059230000002,37.85059230000002,37.85059230000002,37.85059230000002,38.1506052000002,38.1506052000002,38.1506052000002,38.1506052000002,38.13640330000021,"['up', 'up']","[0.10751349999986815, 0.26606109999988803]","[0.015996800000039002, None]",37.85059230000002,37.85059230000002,37.85059230000002,37.85059230000002,"[-0.0008695000001353037, 0.1906655000000228]","[0.05588860000011664, 0.04887850000000071]",,,,,,,332057,001,2025-03-24_15h55.42.515,Estimulo_ICE,2024.2.4,60.393366151068804,2025-03-24 15h55.46.858966 -0300,
Estimulo_7,27,27,0,2.2,-2.2,-2.2,2.2,1.69999999999999,-1.69999999999999,1.69999999999999,-1.69999999999999,,,,,,,['up'],['up'],[0.042666999999937616],[0.09596929999997883],[0.07075050000003102],[0.14390089999983502],0,1,1,6,,,,,,,,,,,,,,,,,,,,,,,,,0,27,27,27,,,,,,,,,,,,,,,,,,,,,38.1506052000002,,,,,,,,,,,,,,,,,,,,,,,,,38.13681610000003,38.1506052000002,38.1506052000002,38.1506052000002,38.1506052000002,38.436648000000105,['up'],38.43692730000021,38.4505908000001,38.4505908000001,38.4505908000001,38.4505908000001,38.75074410000002,38.75074410000002,38.75074410000002,38.75074410000002,38.736748700000135,['up'],[0.042666999999937616],[0.09596929999997883],38.4505908000001,38.4505908000001,38.4505908000001,38.4505908000001,[0.07075050000003102],[0.14390089999983502],,,,,,,332057,001,2025-03-24_15h55.42.515,Estimulo_ICE,2024.2.4,60.393366151068804,2025-03-24 15h55.46.858966 -0300,
Estimulo_7,28,28,0,2.2,-2.2,-2.2,2.2,1.59999999999999,-1.59999999999999,1.59999999999999,-1.59999999999999,,,,,,,"['up', 'up']",None,,,"[0.27556349999986196, 0.19809169999984988]","[0.07955290000018067, None]",0,1,1,6,,,,,,,,,,,,,,,,,,,,,,,,,0,28,28,28,,,,,,,,,,,,,,,,,,,,,38.75074410000002,,,,,,,,,,,,,,,,,,,,,,,,,38.737157800000205,38.75074410000002,38.75074410000002,38.75074410000002,38.75074410000002,39.03656850000016,"['up', 'up']",39.03685150000001,39.050724100000025,39.050724100000025,39.050724100000025,39.050724100000025,39.35066300000017,39.35066300000017,39.35066300000017,39.35066300000017,39.33668690000013,None,,,39.050724100000025,39.050724100000025,39.050724100000025,39.050724100000025,"[0.27556349999986196, 0.19809169999984988]","[0.07955290000018067, None]",,,,,,,332057,001,2025-03-24_15h55.42.515,Estimulo_ICE,2024.2.4,60.393366151068804,2025-03-24 15h55.46.858966 -0300,
Estimulo_7,29,29,0,2.2,-2.2,-2.2,2.2,1.49999999999998,-1.49999999999998,1.49999999999998,-1.49999999999998,,,,,,,None,"['up', 'up']","[0.0345047999999224, 0.2114844999998695]","[0.03168200000004617, 0.04700310000021091]",,,0,1,1,6,,,,,,,,,,,,,,,,,,,,,,,,,0,29,29,29,,,,,,,,,,,,,,,,,,,,,39.35066300000017,,,,,,,,,,,,,,,,,,,,,,,,,39.337071700000024,39.35066300000017,39.35066300000017,39.35066300000017,39.35066300000017,39.63642600000003,None,39.63668850000022,39.6505873000001,39.6505873000001,39.6505873000001,39.6505873000001,,,,,39.939530200000036,"['up', 'up']","[0.0345047999999224, 0.2114844999998695]","[0.03168200000004617, 0.04700310000021091]",39.6505873000001,39.6505873000001,39.6505873000001,39.6505873000001,,,,,,,,,332057,001,2025-03-24_15h55.42.515,Estimulo_ICE,2024.2.4,60.393366151068804,2025-03-24 15h55.46.858966 -0300,
Estimulo_7,30,30,0,2.2,-2.2,-2.2,2.2,1.39999999999998,-1.39999999999998,1.39999999999998,-1.39999999999998,,,,,,,['up'],"['up', 'up']","[0.27841669999997976, 0.16254909999997835]","[0.03910430000019005, 0.05485639999983505]",[0.09380260000011731],[0.03995729999996911],0,1,1,6,,,,,,,,,,,,,,,,,,,,,,,,,0,30,30,30,,,,,,,,,,,,,,,,,,,,,39.951525100000026,,,,,,,,,,,,,,,,,,,,,,,,,39.94034100000022,39.951525100000026,39.951525100000026,39.951525100000026,39.951525100000026,40.23931580000021,['up'],40.239880400000175,40.251584600000115,40.251584600000115,40.251584600000115,40.251584600000115,,,,,40.539306000000124,"['up', 'up']","[0.27841669999997976, 0.16254909999997835]","[0.03910430000019005, 0.05485639999983505]",,,,,[0.09380260000011731],[0.03995729999996911],,,,,,,332057,001,2025-03-24_15h55.42.515,Estimulo_ICE,2024.2.4,60.393366151068804,2025-03-24 15h55.46.858966 -0300,
Estimulo_7,31,31,0,2.2,-2.2,-2.2,2.2,1.29999999999998,-1.29999999999998,1.29999999999998,-1.29999999999998,,,,,,,['up'],"['up', 'up']","[0.03395419999992555, 0.26542459999996026]","[0.06363880000003519, None]",[0.03829259999997703],[0.07917620000011993],0,1,1,6,,,,,,,,,,,,,,,,,,,,,,,,,0,31,31,31,,,,,,,,,,,,,,,,,,,,,40.55147610000017,,,,,,,,,,,,,,,,,,,,,,,,,40.540123800000174,40.55147610000017,40.55147610000017,40.55147610000017,40.55147610000017,40.839349000000084,['up'],40.8399366000001,40.8514461000002,40.8514461000002,40.8514461000002,40.8514461000002,,,,,41.13945970000009,"['up', 'up']","[0.03395419999992555, 0.26542459999996026]","[0.06363880000003519, None]",,,,,[0.03829259999997703],[0.07917620000011993],,,,,,,332057,001,2025-03-24_15h55.42.515,Estimulo_ICE,2024.2.4,60.393366151068804,2025-03-24 15h55.46.858966 -0300,
Estimulo_7,32,32,0,2.2,-2.2,-2.2,2.2,1.19999999999998,-1.19999999999998,1.19999999999998,-1.19999999999998,,,,,,,None,['up'],[0.21016910000003008],[None],,,0,1,1,6,,,,,,,,,,,,,,,,,,,,,,,,,0,32,32,32,,,,,,,,,,,,,,,,,,,,,41.15146640000012,,,,,,,,,,,,,,,,,,,,,,,,,41.1402770000002,41.15146640000012,41.15146640000012,41.15146640000012,41.15146640000012,41.439399700000195,None,41.43991600000004,41.4514336000002,41.4514336000002,41.4514336000002,41.4514336000002,,,,,41.73933460000012,['up'],[0.21016910000003008],[None],,,,,,,,,,,,,332057,001,2025-03-24_15h55.42.515,Estimulo_ICE,2024.2.4,60.393366151068804,2025-03-24 15h55.46.858966 -0300,
Estimulo_7,33,33,0,2.2,-2.2,-2.2,2.2,1.09999999999998,-1.09999999999998,1.09999999999998,-1.09999999999998,,,,,,,['up'],None,,,[0.14983040000015535],[0.08064079999985552],0,1,1,6,,,,,,,,,,,,,,,,,,,,,,,,,0,33,33,33,,,,,,,,,,,,,,,,,,,,,41.75139380000019,,,,,,,,,,,,,,,,,,,,,,,,,41.740142700000206,41.75139380000019,41.75139380000019,41.75139380000019,41.75139380000019,42.0372625,['up'],42.037626100000125,42.0505555000002,42.0505555000002,42.0505555000002,42.0505555000002,42.416633500000216,42.416633500000216,42.416633500000216,42.416633500000216,42.33664410000006,None,,,42.0505555000002,42.0505555000002,42.0505555000002,42.0505555000002,[0.14983040000015535],[0.08064079999985552],,,,,,,332057,001,2025-03-24_15h55.42.515,Estimulo_ICE,2024.2.4,60.393366151068804,2025-03-24 15h55.46.858966 -0300,
Estimulo_7,1,1,0,,,,,,,,,,,,,,,,,,,,,0,1,1,6,,,,,,,,,,,,,,,,,,,,,,,,,,,,,,,,,,,,,,,,,,,,,,,,,,,,,,,,,,,,,,,,,,,,,,,42.402413000000024,42.416633500000216,43.85281430000009,,,,,,,,,,,,,,,,,,,,,,,,,,,,,,,,,332057,001,2025-03-24_15h55.42.515,Estimulo_ICE,2024.2.4,60.393366151068804,2025-03-24 15h55.46.858966 -0300,
Estimulo_9,0,0,0,4.4,-4.4,4.4,-4.4,2.2,-2.2,-2.2,2.2,['up'],"['up', 'up']",[0.039138999999977386],[0.06305399999996553],"[-0.01058229999989635, 0.1734060999999656]","[0.056083499999886044, 0.05553330000020651]",,,,,,,0,2,2,8,,,,,,,,,,,,,,,,,,,,,,,,,,,,,,,,,0,0,0,0,,,,,,,,,,,,,43.96675170000003,,43.85292500000014,43.85339750000003,43.95976160000009,43.96675170000003,43.96675170000003,43.96675170000003,43.96675170000003,44.16957670000011,,44.169849800000065,44.18395490000012,44.18395490000012,44.18395490000012,44.18395490000012,44.46949530000006,,,,,,,,,,,,,,,,,,,,,,,,,,,,,,,,,,,['up'],[0.039138999999977386],[0.06305399999996553],"['up', 'up']","[-0.01058229999989635, 0.1734060999999656]","[0.056083499999886044, 0.05553330000020651]",332057,001,2025-03-24_15h55.42.515,Estimulo_ICE,2024.2.4,60.393366151068804,2025-03-24 15h55.46.858966 -0300,
Estimulo_9,1,1,0,4.3,-4.3,4.3,-4.3,2.2,-2.2,-2.2,2.2,['up'],None,[0.041452199999866934],[0.06484739999996236],,,,,,,,,0,2,2,8,,,,,,,,,,,,,,,,,,,,,,,,,,,,,,,,,0,1,1,1,,,,,,,,,,,,,44.48375420000002,,,,44.4698906000001,44.48375420000002,44.48375420000002,44.48375420000002,44.48375420000002,44.769408500000054,,44.76968450000004,44.78388270000005,44.78388270000005,44.78388270000005,44.78388270000005,45.05687570000009,,,,,,,,,,,,,,,,,,,,,,,,,,,,,,,,,,,['up'],[0.041452199999866934],[0.06484739999996236],None,,,332057,001,2025-03-24_15h55.42.515,Estimulo_ICE,2024.2.4,60.393366151068804,2025-03-24 15h55.46.858966 -0300,
Estimulo_9,2,2,0,4.2,-4.2,4.2,-4.2,2.2,-2.2,-2.2,2.2,['up'],['right'],[0.032999999999901775],[0.07150309999997262],[0.0685265999998137],[0.07981150000000525],,,,,,,0,2,2,8,,,,,,,,,,,,,,,,,,,,,,,,,,,,,,,,,0,2,2,2,,,,,,,,,,,,,45.06846960000007,,,,45.05772120000006,45.06846960000007,45.06846960000007,45.06846960000007,45.06846960000007,45.35678280000002,,45.357406500000025,45.36847250000005,45.36847250000005,45.36847250000005,45.36847250000005,45.6568913000001,,,,,,,,,,,,,,,,,,,,,,,,,,,,,,,,,,,['up'],[0.032999999999901775],[0.07150309999997262],['right'],[0.0685265999998137],[0.07981150000000525],332057,001,2025-03-24_15h55.42.515,Estimulo_ICE,2024.2.4,60.393366151068804,2025-03-24 15h55.46.858966 -0300,
Estimulo_9,3,3,0,4.1,-4.1,4.1,-4.1,2.2,-2.2,-2.2,2.2,"['right', 'right']","['up', 'up']","[0.27759900000000926, 0.1611967999999706]","[0.10269139999991239, 0.12029750000010608]","[0.04610139999999774, 0.21407010000007176]","[0.07099940000011884, None]",,,,,,,0,2,2,8,,,,,,,,,,,,,,,,,,,,,,,,,,,,,,,,,0,3,3,3,,,,,,,,,,,,,45.66840180000008,,,,45.6577992,45.66840180000008,45.66840180000008,45.66840180000008,45.66840180000008,45.96937620000017,,45.96964960000014,45.98398580000003,45.98398580000003,45.98398580000003,45.98398580000003,46.26937880000014,,,,,,,,,,,,,,,,,,,,,,,,,,,,,,,,,,,"['right', 'right']","[0.27759900000000926, 0.1611967999999706]","[0.10269139999991239, 0.12029750000010608]","['up', 'up']","[0.04610139999999774, 0.21407010000007176]","[0.07099940000011884, None]",332057,001,2025-03-24_15h55.42.515,Estimulo_ICE,2024.2.4,60.393366151068804,2025-03-24 15h55.46.858966 -0300,
Estimulo_9,4,4,0,4,-4,4,-4,2.2,-2.2,-2.2,2.2,None,None,,,,,,,,,,,0,2,2,8,,,,,,,,,,,,,,,,,,,,,,,,,,,,,,,,,0,4,4,4,,,,,,,,,,,,,46.283807600000046,,,,46.26977410000018,46.283807600000046,46.283807600000046,46.283807600000046,46.283807600000046,46.56947770000011,,46.56972770000016,46.584055800000215,46.584055800000215,46.584055800000215,46.584055800000215,46.86931440000012,,,,,,,,,,,,,,,,,,,,,,,,,,,,,,,,,,,None,,,None,,,332057,001,2025-03-24_15h55.42.515,Estimulo_ICE,2024.2.4,60.393366151068804,2025-03-24 15h55.46.858966 -0300,
,5,5,0,3.9,-3.9,3.9,-3.9,2.2,-2.2,-2.2,2.2,,,,,,,,,,,,,,,,,,,,,,,,,,,,,,,,,,,,,,,,,,,,,,,,,0,5,5,5,,,,,,,,,,,,,46.8838753,,,,46.869679700000006,46.8838753,46.8838753,46.8838753,46.8838753,,,,,,,,,,,,,,,,,,,,,,,,,,,,,,,,,,,,,,,,,,,,,,,,,,,,,,,,
