LoopName,thisN,thisTrialN,thisRepN,px1,px2,px3,px4,py1,py2,py3,py4,MainLoop.thisRepN,MainLoop.thisTrialN,MainLoop.thisN,MainLoop.thisIndex,loop_1.thisRepN,loop_1.thisTrialN,loop_1.thisN,loop_1.thisIndex,loop_2.thisRepN,loop_2.thisTrialN,loop_2.thisN,loop_2.thisIndex,loop_3.thisRepN,loop_3.thisTrialN,loop_3.thisN,loop_3.thisIndex,loop_4.thisRepN,loop_4.thisTrialN,loop_4.thisN,loop_4.thisIndex,loop_5.thisRepN,loop_5.thisTrialN,loop_5.thisN,loop_5.thisIndex,loop_6.thisRepN,loop_6.thisTrialN,loop_6.thisN,loop_6.thisIndex,loop_7.thisRepN,loop_7.thisTrialN,loop_7.thisN,loop_7.thisIndex,loop_8.thisRepN,loop_8.thisTrialN,loop_8.thisN,loop_8.thisIndex,loop_9.thisRepN,loop_9.thisTrialN,loop_9.thisN,loop_9.thisIndex,loop_10.thisRepN,loop_10.thisTrialN,loop_10.thisN,loop_10.thisIndex,loop_11.thisRepN,loop_11.thisTrialN,loop_11.thisN,loop_11.thisIndex,loop_12.thisRepN,loop_12.thisTrialN,loop_12.thisN,loop_12.thisIndex,thisRow.t,notes,codigo.started,codigo.stopped,trial_3.started,image_5.started,image_6.started,polygon_3.started,trial_3.stopped,trial_4.started,image_7.started,image_8.started,polygon_4.started,trial_4.stopped,image_7.stopped,image_8.stopped,polygon_4.stopped,image_5.stopped,image_6.stopped,polygon_3.stopped,_intertrial_interval_.started,polygon_5.started,_intertrial_interval_.stopped,trial.started,image.started,image_2.started,polygon.started,trial.stopped,trial_2.started,image_3.started,image_4.started,polygon_2.started,trial_2.stopped,image_3.stopped,image_4.stopped,polygon_2.stopped,image.stopped,image_2.stopped,polygon.stopped,trial_5.started,image_9.started,polygon_6.started,image_10.started,trial_5.stopped,trial_6.started,image_11.started,image_12.started,polygon_7.started,trial_6.stopped,image_11.stopped,image_12.stopped,polygon_7.stopped,participant,session,date,expName,psychopyVersion,frameRate,expStart,
Estimulo_7,0,0,0,2.2,-2.2,-2.2,2.2,4.4,-4.4,4.4,-4.4,0,0,0,6,,,,,,,,,,,,,,,,,,,,,,,,,0,0,0,0,,,,,,,,,,,,,,,,,,,,,0.11249540001153946,,0.01936630002455786,0.019809500023256987,0.10672840004554018,0.11249540001153946,0.11249540001153946,0.11249540001153946,0.320339200028684,0.3209177000098862,0.32978369999909773,0.32978369999909773,0.32978369999909773,0.6241035000421107,,,,,,,,,,,,,,,,,,,,,,,,,,,,,,,,,,,,,,,352988,001,2025-03-20_15h54.10.886,Estimulo_ICE,2024.2.4,60.00034799069829,2025-03-20 15h54.16.261674 -0300,
Estimulo_7,1,1,0,2.2,-2.2,-2.2,2.2,4.3,-4.3,4.3,-4.3,0,0,0,6,,,,,,,,,,,,,,,,,,,,,,,,,0,1,1,1,,,,,,,,,,,,,,,,,,,,,0.6445904000429437,,,,0.6255095000378788,0.6445904000429437,0.6445904000429437,0.6445904000429437,0.917798800044693,0.9183175000362098,0.9295241000363603,0.9295241000363603,0.9295241000363603,1.2180559000116773,1.2294277000473812,1.2294277000473812,1.2294277000473812,,,,,,,,,,,,,,,,,,,,,,,,,,,,,,,,,,,,352988,001,2025-03-20_15h54.10.886,Estimulo_ICE,2024.2.4,60.00034799069829,2025-03-20 15h54.16.261674 -0300,
Estimulo_7,2,2,0,2.2,-2.2,-2.2,2.2,4.2,-4.2,4.2,-4.2,0,0,0,6,,,,,,,,,,,,,,,,,,,,,,,,,0,2,2,2,,,,,,,,,,,,,,,,,,,,,1.2294277000473812,,,,1.2187948999926448,1.2294277000473812,1.2294277000473812,1.2294277000473812,1.5178588000126183,1.5183759999927133,1.5295641000266187,1.5295641000266187,1.5295641000266187,1.8181877000024542,1.8294208000297658,1.8294208000297658,1.8294208000297658,1.5295641000266187,1.5295641000266187,1.5295641000266187,,,,,,,,,,,,,,,,,,,,,,,,,,,,,,,,,352988,001,2025-03-20_15h54.10.886,Estimulo_ICE,2024.2.4,60.00034799069829,2025-03-20 15h54.16.261674 -0300,
Estimulo_7,3,3,0,2.2,-2.2,-2.2,2.2,4.1,-4.1,4.1,-4.1,0,0,0,6,,,,,,,,,,,,,,,,,,,,,,,,,0,3,3,3,,,,,,,,,,,,,,,,,,,,,1.8294208000297658,,,,1.8189302000100724,1.8294208000297658,1.8294208000297658,1.8294208000297658,2.1178569000330754,2.1183750000200234,2.129545300034806,2.129545300034806,2.129545300034806,2.417912900040392,2.4293762000161223,2.4293762000161223,2.4293762000161223,2.129545300034806,2.129545300034806,2.129545300034806,,,,,,,,,,,,,,,,,,,,,,,,,,,,,,,,,352988,001,2025-03-20_15h54.10.886,Estimulo_ICE,2024.2.4,60.00034799069829,2025-03-20 15h54.16.261674 -0300,
Estimulo_7,4,4,0,2.2,-2.2,-2.2,2.2,4,-4,4,-4,0,0,0,6,,,,,,,,,,,,,,,,,,,,,,,,,0,4,4,4,,,,,,,,,,,,,,,,,,,,,2.4293762000161223,,,,2.4186485999962315,2.4293762000161223,2.4293762000161223,2.4293762000161223,2.7237860000459477,2.7247184000443667,2.7463453999953344,2.7463453999953344,2.7463453999953344,3.019390400033444,,,,,,,,,,,,,,,,,,,,,,,,,,,,,,,,,,,,,,,352988,001,2025-03-20_15h54.10.886,Estimulo_ICE,2024.2.4,60.00034799069829,2025-03-20 15h54.16.261674 -0300,
Estimulo_7,5,5,0,2.2,-2.2,-2.2,2.2,3.9,-3.9,3.9,-3.9,0,0,0,6,,,,,,,,,,,,,,,,,,,,,,,,,0,5,5,5,,,,,,,,,,,,,,,,,,,,,3.029931300028693,,,,3.0202988000237383,3.029931300028693,3.029931300028693,3.029931300028693,3.3197094000061043,3.320338800025638,3.3299288999987766,3.3299288999987766,3.3299288999987766,3.6198271000175737,3.629759700037539,3.629759700037539,3.629759700037539,3.3299288999987766,3.3299288999987766,3.3299288999987766,,,,,,,,,,,,,,,,,,,,,,,,,,,,,,,,,352988,001,2025-03-20_15h54.10.886,Estimulo_ICE,2024.2.4,60.00034799069829,2025-03-20 15h54.16.261674 -0300,
Estimulo_7,6,6,0,2.2,-2.2,-2.2,2.2,3.8,-3.8,3.8,-3.8,0,0,0,6,,,,,,,,,,,,,,,,,,,,,,,,,0,6,6,6,,,,,,,,,,,,,,,,,,,,,3.629759700037539,,,,3.620686700043734,3.629759700037539,3.629759700037539,3.629759700037539,3.919570400030352,3.920197100029327,3.9299532000441104,3.9299532000441104,3.9299532000441104,4.219772800046485,4.229862300038803,4.229862300038803,4.229862300038803,3.9299532000441104,3.9299532000441104,3.9299532000441104,,,,,,,,,,,,,,,,,,,,,,,,,,,,,,,,,352988,001,2025-03-20_15h54.10.886,Estimulo_ICE,2024.2.4,60.00034799069829,2025-03-20 15h54.16.261674 -0300,
Estimulo_7,7,7,0,2.2,-2.2,-2.2,2.2,3.7,-3.7,3.7,-3.7,0,0,0,6,,,,,,,,,,,,,,,,,,,,,,,,,0,7,7,7,,,,,,,,,,,,,,,,,,,,,4.229862300038803,,,,4.220630600000732,4.229862300038803,4.229862300038803,4.229862300038803,4.519518200017046,4.520144500012975,4.530019300000276,4.530019300000276,4.530019300000276,4.820066600048449,4.8297901000478305,4.8297901000478305,4.8297901000478305,4.530019300000276,4.530019300000276,4.530019300000276,,,,,,,,,,,,,,,,,,,,,,,,,,,,,,,,,352988,001,2025-03-20_15h54.10.886,Estimulo_ICE,2024.2.4,60.00034799069829,2025-03-20 15h54.16.261674 -0300,
Estimulo_7,8,8,0,2.2,-2.2,-2.2,2.2,3.6,-3.6,3.6,-3.6,0,0,0,6,,,,,,,,,,,,,,,,,,,,,,,,,0,8,8,8,,,,,,,,,,,,,,,,,,,,,4.8297901000478305,,,,4.8209665000322275,4.8297901000478305,4.8297901000478305,4.8297901000478305,5.1195774000370875,5.12019839999266,5.129756600013934,5.129756600013934,5.129756600013934,5.416252100025304,5.428889300033916,5.428889300033916,5.428889300033916,5.129756600013934,5.129756600013934,5.129756600013934,,,,,,,,,,,,,,,,,,,,,,,,,,,,,,,,,352988,001,2025-03-20_15h54.10.886,Estimulo_ICE,2024.2.4,60.00034799069829,2025-03-20 15h54.16.261674 -0300,
Estimulo_7,9,9,0,2.2,-2.2,-2.2,2.2,3.5,-3.5,3.5,-3.5,0,0,0,6,,,,,,,,,,,,,,,,,,,,,,,,,0,9,9,9,,,,,,,,,,,,,,,,,,,,,5.428889300033916,,,,5.416800400009379,5.428889300033916,5.428889300033916,5.428889300033916,5.718942800012883,5.719526000029873,5.7297596000134945,5.7297596000134945,5.7297596000134945,6.018916200031526,6.02974870003527,6.02974870003527,6.02974870003527,5.7297596000134945,5.7297596000134945,5.7297596000134945,,,,,,,,,,,,,,,,,,,,,,,,,,,,,,,,,352988,001,2025-03-20_15h54.10.886,Estimulo_ICE,2024.2.4,60.00034799069829,2025-03-20 15h54.16.261674 -0300,
Estimulo_7,10,10,0,2.2,-2.2,-2.2,2.2,3.39999999999999,-3.39999999999999,3.39999999999999,-3.39999999999999,0,0,0,6,,,,,,,,,,,,,,,,,,,,,,,,,0,10,10,10,,,,,,,,,,,,,,,,,,,,,6.02974870003527,,,,6.019760700000916,6.02974870003527,6.02974870003527,6.02974870003527,6.3190845000208355,6.319672600016929,6.329709900019225,6.329709900019225,6.329709900019225,6.615334900037851,,,,6.329709900019225,6.329709900019225,6.329709900019225,,,,,,,,,,,,,,,,,,,,,,,,,,,,,,,,,352988,001,2025-03-20_15h54.10.886,Estimulo_ICE,2024.2.4,60.00034799069829,2025-03-20 15h54.16.261674 -0300,
Estimulo_7,11,11,0,2.2,-2.2,-2.2,2.2,3.29999999999999,-3.29999999999999,3.29999999999999,-3.29999999999999,0,0,0,6,,,,,,,,,,,,,,,,,,,,,,,,,0,11,11,11,,,,,,,,,,,,,,,,,,,,,6.628600700001698,,,,6.615831200033426,6.628600700001698,6.628600700001698,6.628600700001698,6.914302700024564,6.914542600046843,6.928528000018559,6.928528000018559,6.928528000018559,7.2144852000055835,7.22841260000132,7.22841260000132,7.22841260000132,6.928528000018559,6.928528000018559,6.928528000018559,,,,,,,,,,,,,,,,,,,,,,,,,,,,,,,,,352988,001,2025-03-20_15h54.10.886,Estimulo_ICE,2024.2.4,60.00034799069829,2025-03-20 15h54.16.261674 -0300,
Estimulo_7,12,12,0,2.2,-2.2,-2.2,2.2,3.19999999999999,-3.19999999999999,3.19999999999999,-3.19999999999999,0,0,0,6,,,,,,,,,,,,,,,,,,,,,,,,,0,12,12,12,,,,,,,,,,,,,,,,,,,,,7.22841260000132,,,,7.214854900026694,7.22841260000132,7.22841260000132,7.22841260000132,7.514238000032492,7.514490800036583,7.528439400019124,7.528439400019124,7.528439400019124,7.814385500038043,7.828231599996798,7.828231599996798,7.828231599996798,7.528439400019124,7.528439400019124,7.528439400019124,,,,,,,,,,,,,,,,,,,,,,,,,,,,,,,,,352988,001,2025-03-20_15h54.10.886,Estimulo_ICE,2024.2.4,60.00034799069829,2025-03-20 15h54.16.261674 -0300,
Estimulo_7,13,13,0,2.2,-2.2,-2.2,2.2,3.09999999999999,-3.09999999999999,3.09999999999999,-3.09999999999999,0,0,0,6,,,,,,,,,,,,,,,,,,,,,,,,,0,13,13,13,,,,,,,,,,,,,,,,,,,,,7.828231599996798,,,,7.814752700040117,7.828231599996798,7.828231599996798,7.828231599996798,8.114449600048829,8.114698700024746,8.128271299996413,8.128271299996413,8.128271299996413,8.414246400003321,8.428372199996375,8.428372199996375,8.428372199996375,8.128271299996413,8.128271299996413,8.128271299996413,,,,,,,,,,,,,,,,,,,,,,,,,,,,,,,,,352988,001,2025-03-20_15h54.10.886,Estimulo_ICE,2024.2.4,60.00034799069829,2025-03-20 15h54.16.261674 -0300,
Estimulo_7,14,14,0,2.2,-2.2,-2.2,2.2,2.99999999999999,-2.99999999999999,2.99999999999999,-2.99999999999999,0,0,0,6,,,,,,,,,,,,,,,,,,,,,,,,,0,14,14,14,,,,,,,,,,,,,,,,,,,,,8.428372199996375,,,,8.414595300040673,8.428372199996375,8.428372199996375,8.428372199996375,8.7169203000376,8.717359500005841,8.729093800007831,8.729093800007831,8.729093800007831,9.019533800019417,9.029808700026479,9.029808700026479,9.029808700026479,8.729093800007831,8.729093800007831,8.729093800007831,,,,,,,,,,,,,,,,,,,,,,,,,,,,,,,,,352988,001,2025-03-20_15h54.10.886,Estimulo_ICE,2024.2.4,60.00034799069829,2025-03-20 15h54.16.261674 -0300,
Estimulo_7,15,15,0,2.2,-2.2,-2.2,2.2,2.89999999999999,-2.89999999999999,2.89999999999999,-2.89999999999999,0,0,0,6,,,,,,,,,,,,,,,,,,,,,,,,,0,15,15,15,,,,,,,,,,,,,,,,,,,,,9.029808700026479,,,,9.020437800034415,9.029808700026479,9.029808700026479,9.029808700026479,9.319462300045416,9.320060700003523,9.329907200008165,9.329907200008165,9.329907200008165,9.616252900043037,,,,9.329907200008165,9.329907200008165,9.329907200008165,,,,,,,,,,,,,,,,,,,,,,,,,,,,,,,,,352988,001,2025-03-20_15h54.10.886,Estimulo_ICE,2024.2.4,60.00034799069829,2025-03-20 15h54.16.261674 -0300,
Estimulo_7,16,16,0,2.2,-2.2,-2.2,2.2,2.79999999999999,-2.79999999999999,2.79999999999999,-2.79999999999999,0,0,0,6,,,,,,,,,,,,,,,,,,,,,,,,,0,16,16,16,,,,,,,,,,,,,,,,,,,,,9.628702100017108,,,,9.61677000002237,9.628702100017108,9.628702100017108,9.628702100017108,9.914262600010261,9.914516700024251,9.92840180004714,9.92840180004714,9.92840180004714,10.214256500010379,10.228435800003354,10.228435800003354,10.228435800003354,9.92840180004714,9.92840180004714,9.92840180004714,,,,,,,,,,,,,,,,,,,,,,,,,,,,,,,,,352988,001,2025-03-20_15h54.10.886,Estimulo_ICE,2024.2.4,60.00034799069829,2025-03-20 15h54.16.261674 -0300,
Estimulo_7,17,17,0,2.2,-2.2,-2.2,2.2,2.69999999999999,-2.69999999999999,2.69999999999999,-2.69999999999999,0,0,0,6,,,,,,,,,,,,,,,,,,,,,,,,,0,17,17,17,,,,,,,,,,,,,,,,,,,,,10.228435800003354,,,,10.214625200023875,10.228435800003354,10.228435800003354,10.228435800003354,10.514384300040547,10.51463520003017,10.52835259999847,10.52835259999847,10.52835259999847,10.81708130001789,10.829245200031437,10.829245200031437,10.829245200031437,10.52835259999847,10.52835259999847,10.52835259999847,,,,,,,,,,,,,,,,,,,,,,,,,,,,,,,,,352988,001,2025-03-20_15h54.10.886,Estimulo_ICE,2024.2.4,60.00034799069829,2025-03-20 15h54.16.261674 -0300,
Estimulo_7,18,18,0,2.2,-2.2,-2.2,2.2,2.59999999999999,-2.59999999999999,2.59999999999999,-2.59999999999999,0,0,0,6,,,,,,,,,,,,,,,,,,,,,,,,,0,18,18,18,,,,,,,,,,,,,,,,,,,,,10.829245200031437,,,,10.817747100023553,10.829245200031437,10.829245200031437,10.829245200031437,11.11507800000254,11.115385800017975,11.128593900008127,11.128593900008127,11.128593900008127,11.414364000025671,11.428514400031418,11.428514400031418,11.428514400031418,11.128593900008127,11.128593900008127,11.128593900008127,,,,,,,,,,,,,,,,,,,,,,,,,,,,,,,,,352988,001,2025-03-20_15h54.10.886,Estimulo_ICE,2024.2.4,60.00034799069829,2025-03-20 15h54.16.261674 -0300,
Estimulo_7,19,19,0,2.2,-2.2,-2.2,2.2,2.49999999999999,-2.49999999999999,2.49999999999999,-2.49999999999999,0,0,0,6,,,,,,,,,,,,,,,,,,,,,,,,,0,19,19,19,,,,,,,,,,,,,,,,,,,,,11.428514400031418,,,,11.414727199997287,11.428514400031418,11.428514400031418,11.428514400031418,11.714321600040421,11.714574800047558,11.728370700031519,11.728370700031519,11.728370700031519,12.014255799993407,12.028347600018606,12.028347600018606,12.028347600018606,11.728370700031519,11.728370700031519,11.728370700031519,,,,,,,,,,,,,,,,,,,,,,,,,,,,,,,,,352988,001,2025-03-20_15h54.10.886,Estimulo_ICE,2024.2.4,60.00034799069829,2025-03-20 15h54.16.261674 -0300,
Estimulo_7,20,20,0,2.2,-2.2,-2.2,2.2,2.39999999999999,-2.39999999999999,2.39999999999999,-2.39999999999999,0,0,0,6,,,,,,,,,,,,,,,,,,,,,,,,,0,20,20,20,,,,,,,,,,,,,,,,,,,,,12.028347600018606,,,,12.014621900045313,12.028347600018606,12.028347600018606,12.028347600018606,12.314294500043616,12.31454799999483,12.328437999996822,12.328437999996822,12.328437999996822,12.61421110003721,12.628468300041277,12.628468300041277,12.628468300041277,12.328437999996822,12.328437999996822,12.328437999996822,,,,,,,,,,,,,,,,,,,,,,,,,,,,,,,,,352988,001,2025-03-20_15h54.10.886,Estimulo_ICE,2024.2.4,60.00034799069829,2025-03-20 15h54.16.261674 -0300,
Estimulo_7,21,21,0,2.2,-2.2,-2.2,2.2,2.29999999999999,-2.29999999999999,2.29999999999999,-2.29999999999999,0,0,0,6,,,,,,,,,,,,,,,,,,,,,,,,,0,21,21,21,,,,,,,,,,,,,,,,,,,,,12.628468300041277,,,,12.614558600005694,12.628468300041277,12.628468300041277,12.628468300041277,12.914304000034463,12.914555000024848,12.928386500047054,12.928386500047054,12.928386500047054,13.214364500017837,13.228479500045069,13.228479500045069,13.228479500045069,12.928386500047054,12.928386500047054,12.928386500047054,,,,,,,,,,,,,,,,,,,,,,,,,,,,,,,,,352988,001,2025-03-20_15h54.10.886,Estimulo_ICE,2024.2.4,60.00034799069829,2025-03-20 15h54.16.261674 -0300,
Estimulo_7,22,22,0,2.2,-2.2,-2.2,2.2,2.19999999999999,-2.19999999999999,2.19999999999999,-2.19999999999999,0,0,0,6,,,,,,,,,,,,,,,,,,,,,,,,,0,22,22,22,,,,,,,,,,,,,,,,,,,,,13.228479500045069,,,,13.214728499995545,13.228479500045069,13.228479500045069,13.228479500045069,13.51431820000289,13.51456949999556,13.52848570002243,13.52848570002243,13.52848570002243,13.814279100042768,13.828282400034368,13.828282400034368,13.828282400034368,13.52848570002243,13.52848570002243,13.52848570002243,,,,,,,,,,,,,,,,,,,,,,,,,,,,,,,,,352988,001,2025-03-20_15h54.10.886,Estimulo_ICE,2024.2.4,60.00034799069829,2025-03-20 15h54.16.261674 -0300,
Estimulo_7,23,23,0,2.2,-2.2,-2.2,2.2,2.09999999999999,-2.09999999999999,2.09999999999999,-2.09999999999999,0,0,0,6,,,,,,,,,,,,,,,,,,,,,,,,,0,23,23,23,,,,,,,,,,,,,,,,,,,,,13.828282400034368,,,,13.814627600018866,13.828282400034368,13.828282400034368,13.828282400034368,14.114229700004216,14.114483800018206,14.12837109999964,14.12837109999964,14.12837109999964,14.414398699998856,14.42829760001041,14.42829760001041,14.42829760001041,14.12837109999964,14.12837109999964,14.12837109999964,,,,,,,,,,,,,,,,,,,,,,,,,,,,,,,,,352988,001,2025-03-20_15h54.10.886,Estimulo_ICE,2024.2.4,60.00034799069829,2025-03-20 15h54.16.261674 -0300,
Estimulo_7,24,24,0,2.2,-2.2,-2.2,2.2,1.99999999999999,-1.99999999999999,1.99999999999999,-1.99999999999999,0,0,0,6,,,,,,,,,,,,,,,,,,,,,,,,,0,24,24,24,,,,,,,,,,,,,,,,,,,,,14.42829760001041,,,,14.414763200038578,14.42829760001041,14.42829760001041,14.42829760001041,14.71768170001451,14.718198200047482,14.729396700044163,14.729396700044163,14.729396700044163,15.017800700035878,15.029320000030566,15.029320000030566,15.029320000030566,14.729396700044163,14.729396700044163,14.729396700044163,,,,,,,,,,,,,,,,,,,,,,,,,,,,,,,,,352988,001,2025-03-20_15h54.10.886,Estimulo_ICE,2024.2.4,60.00034799069829,2025-03-20 15h54.16.261674 -0300,
Estimulo_7,25,25,0,2.2,-2.2,-2.2,2.2,1.89999999999999,-1.89999999999999,1.89999999999999,-1.89999999999999,0,0,0,6,,,,,,,,,,,,,,,,,,,,,,,,,0,25,25,25,,,,,,,,,,,,,,,,,,,,,15.029320000030566,,,,15.018514800001867,15.029320000030566,15.029320000030566,15.029320000030566,15.317811599990819,15.318327200016938,15.329709200013895,15.329709200013895,15.329709200013895,15.617752299993299,15.629360500024632,15.629360500024632,15.629360500024632,15.329709200013895,15.329709200013895,15.329709200013895,,,,,,,,,,,,,,,,,,,,,,,,,,,,,,,,,352988,001,2025-03-20_15h54.10.886,Estimulo_ICE,2024.2.4,60.00034799069829,2025-03-20 15h54.16.261674 -0300,
Estimulo_7,26,26,0,2.2,-2.2,-2.2,2.2,1.79999999999999,-1.79999999999999,1.79999999999999,-1.79999999999999,0,0,0,6,,,,,,,,,,,,,,,,,,,,,,,,,0,26,26,26,,,,,,,,,,,,,,,,,,,,,15.629360500024632,,,,15.618503000005148,15.629360500024632,15.629360500024632,15.629360500024632,15.91515850002179,15.915473800036125,15.928532099991571,15.928532099991571,15.928532099991571,16.2151250000461,16.22866600000998,16.22866600000998,16.22866600000998,15.928532099991571,15.928532099991571,15.928532099991571,,,,,,,,,,,,,,,,,,,,,,,,,,,,,,,,,352988,001,2025-03-20_15h54.10.886,Estimulo_ICE,2024.2.4,60.00034799069829,2025-03-20 15h54.16.261674 -0300,
Estimulo_7,27,27,0,2.2,-2.2,-2.2,2.2,1.69999999999999,-1.69999999999999,1.69999999999999,-1.69999999999999,0,0,0,6,,,,,,,,,,,,,,,,,,,,,,,,,0,27,27,27,,,,,,,,,,,,,,,,,,,,,16.22866600000998,,,,16.21556550002424,16.22866600000998,16.22866600000998,16.22866600000998,16.51511279999977,16.51542980002705,16.52852220000932,16.52852220000932,16.52852220000932,16.81532980001066,16.828533000021707,16.828533000021707,16.828533000021707,16.52852220000932,16.52852220000932,16.52852220000932,,,,,,,,,,,,,,,,,,,,,,,,,,,,,,,,,352988,001,2025-03-20_15h54.10.886,Estimulo_ICE,2024.2.4,60.00034799069829,2025-03-20 15h54.16.261674 -0300,
Estimulo_7,28,28,0,2.2,-2.2,-2.2,2.2,1.59999999999999,-1.59999999999999,1.59999999999999,-1.59999999999999,0,0,0,6,,,,,,,,,,,,,,,,,,,,,,,,,0,28,28,28,,,,,,,,,,,,,,,,,,,,,16.828533000021707,,,,16.81579070002772,16.828533000021707,16.828533000021707,16.828533000021707,17.114938000042457,17.11525229999097,17.12851990002673,17.12851990002673,17.12851990002673,17.415064800006803,17.42845920001855,17.42845920001855,17.42845920001855,17.12851990002673,17.12851990002673,17.12851990002673,,,,,,,,,,,,,,,,,,,,,,,,,,,,,,,,,352988,001,2025-03-20_15h54.10.886,Estimulo_ICE,2024.2.4,60.00034799069829,2025-03-20 15h54.16.261674 -0300,
Estimulo_7,29,29,0,2.2,-2.2,-2.2,2.2,1.49999999999998,-1.49999999999998,1.49999999999998,-1.49999999999998,0,0,0,6,,,,,,,,,,,,,,,,,,,,,,,,,0,29,29,29,,,,,,,,,,,,,,,,,,,,,17.42845920001855,,,,17.41552010003943,17.42845920001855,17.42845920001855,17.42845920001855,17.71430680004414,17.71455000003334,17.728457599994726,17.728457599994726,17.728457599994726,18.01447170000756,18.028457000036724,18.028457000036724,18.028457000036724,17.728457599994726,17.728457599994726,17.728457599994726,,,,,,,,,,,,,,,,,,,,,,,,,,,,,,,,,352988,001,2025-03-20_15h54.10.886,Estimulo_ICE,2024.2.4,60.00034799069829,2025-03-20 15h54.16.261674 -0300,
Estimulo_7,30,30,0,2.2,-2.2,-2.2,2.2,1.39999999999998,-1.39999999999998,1.39999999999998,-1.39999999999998,0,0,0,6,,,,,,,,,,,,,,,,,,,,,,,,,0,30,30,30,,,,,,,,,,,,,,,,,,,,,18.028457000036724,,,,18.014819100033492,18.028457000036724,18.028457000036724,18.028457000036724,18.31430339999497,18.314554500044324,18.32817590003833,18.32817590003833,18.32817590003833,18.614287000033073,18.628328200022224,18.628328200022224,18.628328200022224,18.32817590003833,18.32817590003833,18.32817590003833,,,,,,,,,,,,,,,,,,,,,,,,,,,,,,,,,352988,001,2025-03-20_15h54.10.886,Estimulo_ICE,2024.2.4,60.00034799069829,2025-03-20 15h54.16.261674 -0300,
Estimulo_7,31,31,0,2.2,-2.2,-2.2,2.2,1.29999999999998,-1.29999999999998,1.29999999999998,-1.29999999999998,0,0,0,6,,,,,,,,,,,,,,,,,,,,,,,,,0,31,31,31,,,,,,,,,,,,,,,,,,,,,18.628328200022224,,,,18.61461720004445,18.628328200022224,18.628328200022224,18.628328200022224,18.914102900016587,18.914352699997835,18.928229700017255,18.928229700017255,18.928229700017255,19.214215600048192,19.228335299994797,19.228335299994797,19.228335299994797,18.928229700017255,18.928229700017255,18.928229700017255,,,,,,,,,,,,,,,,,,,,,,,,,,,,,,,,,352988,001,2025-03-20_15h54.10.886,Estimulo_ICE,2024.2.4,60.00034799069829,2025-03-20 15h54.16.261674 -0300,
Estimulo_7,32,32,0,2.2,-2.2,-2.2,2.2,1.19999999999998,-1.19999999999998,1.19999999999998,-1.19999999999998,0,0,0,6,,,,,,,,,,,,,,,,,,,,,,,,,0,32,32,32,,,,,,,,,,,,,,,,,,,,,19.228335299994797,,,,19.21458160004113,19.228335299994797,19.228335299994797,19.228335299994797,19.5141143000219,19.514365700015333,19.528364400030114,19.528364400030114,19.528364400030114,19.814226599992253,19.828169500047807,19.828169500047807,19.828169500047807,19.528364400030114,19.528364400030114,19.528364400030114,,,,,,,,,,,,,,,,,,,,,,,,,,,,,,,,,352988,001,2025-03-20_15h54.10.886,Estimulo_ICE,2024.2.4,60.00034799069829,2025-03-20 15h54.16.261674 -0300,
Estimulo_7,33,33,0,2.2,-2.2,-2.2,2.2,1.09999999999998,-1.09999999999998,1.09999999999998,-1.09999999999998,0,0,0,6,,,,,,,,,,,,,,,,,,,,,,,,,0,33,33,33,,,,,,,,,,,,,,,,,,,,,19.828169500047807,,,,19.8145913000335,19.828169500047807,19.828169500047807,19.828169500047807,20.114349200041033,20.11458950000815,20.128308700048365,20.128308700048365,20.128308700048365,20.414385900017805,20.494433200045023,20.494433200045023,20.494433200045023,20.128308700048365,20.128308700048365,20.128308700048365,,,,,,,,,,,,,,,,,,,,,,,,,,,,,,,,,352988,001,2025-03-20_15h54.10.886,Estimulo_ICE,2024.2.4,60.00034799069829,2025-03-20 15h54.16.261674 -0300,
Estimulo_7,0,0,0,,,,,,,,,0,0,0,6,,,,,,,,,,,,,,,,,,,,,,,,,,,,,,,,,,,,,,,,,,,,,,,,,,,,,,,,,,,,,,,,,,,,,20.480940700042993,20.494433200045023,21.931299399991985,,,,,,,,,,,,,,,,,,,,,,,,,,,,,,352988,001,2025-03-20_15h54.10.886,Estimulo_ICE,2024.2.4,60.00034799069829,2025-03-20 15h54.16.261674 -0300,
Estimulo_3,0,0,0,2.2,-2.2,-2.2,2.2,4.4,-4.4,4.4,-4.4,0,1,1,2,,,,,,,,,0,0,0,0,,,,,,,,,,,,,,,,,,,,,,,,,,,,,,,,,,,,,21.977896600030363,,21.93143290001899,21.931834100047126,,,,,,,,,,,,,,,,,,,,21.968978000048082,21.977896600030363,21.977896600030363,21.977896600030363,22.247222600039095,22.24744460004149,22.261656399990898,22.261656399990898,22.261656399990898,22.547236800019164,,,,,,,,,,,,,,,,,,,,352988,001,2025-03-20_15h54.10.886,Estimulo_ICE,2024.2.4,60.00034799069829,2025-03-20 15h54.16.261674 -0300,
Estimulo_3,1,1,0,2.2,-2.2,-2.2,2.2,4.3,-4.3,4.3,-4.3,0,1,1,2,,,,,,,,,0,1,1,1,,,,,,,,,,,,,,,,,,,,,,,,,,,,,,,,,,,,,22.56170680001378,,,,,,,,,,,,,,,,,,,,,,,22.54759060003562,22.56170680001378,22.56170680001378,22.56170680001378,22.847120799997356,22.847358099999838,22.8615967000369,22.8615967000369,22.8615967000369,23.147215400007553,,,,,,,,,,,,,,,,,,,,352988,001,2025-03-20_15h54.10.886,Estimulo_ICE,2024.2.4,60.00034799069829,2025-03-20 15h54.16.261674 -0300,
Estimulo_3,2,2,0,2.2,-2.2,-2.2,2.2,4.2,-4.2,4.2,-4.2,0,1,1,2,,,,,,,,,0,2,2,2,,,,,,,,,,,,,,,,,,,,,,,,,,,,,,,,,,,,,23.161455900000874,,,,,,,,,,,,,,,,,,,,,,,23.147570500033908,23.161455900000874,23.161455900000874,23.161455900000874,23.4472721000202,23.447508900018875,23.461593400046695,23.461593400046695,23.461593400046695,23.747290700033773,,,,,,,,,,,,,,,,,,,,352988,001,2025-03-20_15h54.10.886,Estimulo_ICE,2024.2.4,60.00034799069829,2025-03-20 15h54.16.261674 -0300,
Estimulo_3,3,3,0,2.2,-2.2,-2.2,2.2,4.1,-4.1,4.1,-4.1,0,1,1,2,,,,,,,,,0,3,3,3,,,,,,,,,,,,,,,,,,,,,,,,,,,,,,,,,,,,,23.761738900037017,,,,,,,,,,,,,,,,,,,,,,,23.74764260003576,23.761738900037017,23.761738900037017,23.761738900037017,24.047264399996493,24.04750020004576,24.06164070003433,24.06164070003433,24.06164070003433,24.347229100007098,,,,,,,,,,,,,,,,,,,,352988,001,2025-03-20_15h54.10.886,Estimulo_ICE,2024.2.4,60.00034799069829,2025-03-20 15h54.16.261674 -0300,
Estimulo_3,4,4,0,2.2,-2.2,-2.2,2.2,4,-4,4,-4,0,1,1,2,,,,,,,,,0,4,4,4,,,,,,,,,,,,,,,,,,,,,,,,,,,,,,,,,,,,,24.361741200031247,,,,,,,,,,,,,,,,,,,,,,,24.347581000009086,24.361741200031247,24.361741200031247,24.361741200031247,24.647303400037345,24.647543300001416,24.66172400000505,24.66172400000505,24.66172400000505,24.947168899991084,,,,,,,,,,,,,,,,,,,,352988,001,2025-03-20_15h54.10.886,Estimulo_ICE,2024.2.4,60.00034799069829,2025-03-20 15h54.16.261674 -0300,
Estimulo_3,5,5,0,2.2,-2.2,-2.2,2.2,3.9,-3.9,3.9,-3.9,0,1,1,2,,,,,,,,,0,5,5,5,,,,,,,,,,,,,,,,,,,,,,,,,,,,,,,,,,,,,24.961646900046617,,,,,,,,,,,,,,,,,,,,,,,24.947518600034527,24.961646900046617,24.961646900046617,24.961646900046617,25.247249500011094,25.24748580000596,25.26150810002582,25.26150810002582,25.26150810002582,25.54706549999537,,,,,,,,,,,,,,,,,,,,352988,001,2025-03-20_15h54.10.886,Estimulo_ICE,2024.2.4,60.00034799069829,2025-03-20 15h54.16.261674 -0300,
Estimulo_3,6,6,0,2.2,-2.2,-2.2,2.2,3.8,-3.8,3.8,-3.8,0,1,1,2,,,,,,,,,0,6,6,6,,,,,,,,,,,,,,,,,,,,,,,,,,,,,,,,,,,,,25.56176370003959,,,,,,,,,,,,,,,,,,,,,,,25.547414100030437,25.56176370003959,25.56176370003959,25.56176370003959,25.8470529000042,25.847292500024196,25.861639600014314,25.861639600014314,25.861639600014314,26.14702820003731,,,,,,,,,,,,,,,,,,,,352988,001,2025-03-20_15h54.10.886,Estimulo_ICE,2024.2.4,60.00034799069829,2025-03-20 15h54.16.261674 -0300,
Estimulo_3,7,7,0,2.2,-2.2,-2.2,2.2,3.7,-3.7,3.7,-3.7,0,1,1,2,,,,,,,,,0,7,7,7,,,,,,,,,,,,,,,,,,,,,,,,,,,,,,,,,,,,,26.161625500011723,,,,,,,,,,,,,,,,,,,,,,,26.147379600035492,26.161625500011723,26.161625500011723,26.161625500011723,26.447125300008338,26.447363500017673,26.46160650003003,26.46160650003003,26.46160650003003,26.74716349999653,,,,,,,,,,,,,,,,,,,,352988,001,2025-03-20_15h54.10.886,Estimulo_ICE,2024.2.4,60.00034799069829,2025-03-20 15h54.16.261674 -0300,
Estimulo_3,8,8,0,2.2,-2.2,-2.2,2.2,3.6,-3.6,3.6,-3.6,0,1,1,2,,,,,,,,,0,8,8,8,,,,,,,,,,,,,,,,,,,,,,,,,,,,,,,,,,,,,26.76160870003514,,,,,,,,,,,,,,,,,,,,,,,26.747515800001565,26.76160870003514,26.76160870003514,26.76160870003514,27.04706150002312,27.047297200013418,27.061589599994477,27.061589599994477,27.061589599994477,27.347068800008856,,,,,,,,,,,,,,,,,,,,352988,001,2025-03-20_15h54.10.886,Estimulo_ICE,2024.2.4,60.00034799069829,2025-03-20 15h54.16.261674 -0300,
Estimulo_3,9,9,0,2.2,-2.2,-2.2,2.2,3.5,-3.5,3.5,-3.5,0,1,1,2,,,,,,,,,0,9,9,9,,,,,,,,,,,,,,,,,,,,,,,,,,,,,,,,,,,,,27.361728999996558,,,,,,,,,,,,,,,,,,,,,,,27.34741980000399,27.361728999996558,27.361728999996558,27.361728999996558,27.638504500035197,27.639090100012254,27.64619620004669,27.64619620004669,27.64619620004669,27.934722100035287,,,,,,,,,,,,,,,,,,,,352988,001,2025-03-20_15h54.10.886,Estimulo_ICE,2024.2.4,60.00034799069829,2025-03-20 15h54.16.261674 -0300,
Estimulo_3,10,10,0,2.2,-2.2,-2.2,2.2,3.39999999999999,-3.39999999999999,3.39999999999999,-3.39999999999999,0,1,1,2,,,,,,,,,0,10,10,10,,,,,,,,,,,,,,,,,,,,,,,,,,,,,,,,,,,,,27.946255600021686,,,,,,,,,,,,,,,,,,,,,,,27.935533000039868,27.946255600021686,27.946255600021686,27.946255600021686,28.23463860002812,28.235187500016764,28.246265600027982,28.246265600027982,28.246265600027982,28.534837100014556,,,,,,,,,,,,,,,,,,,,352988,001,2025-03-20_15h54.10.886,Estimulo_ICE,2024.2.4,60.00034799069829,2025-03-20 15h54.16.261674 -0300,
Estimulo_3,11,11,0,2.2,-2.2,-2.2,2.2,3.29999999999999,-3.29999999999999,3.29999999999999,-3.29999999999999,0,1,1,2,,,,,,,,,0,11,11,11,,,,,,,,,,,,,,,,,,,,,,,,,,,,,,,,,,,,,28.546358400024474,,,,,,,,,,,,,,,,,,,,,,,28.535645800002385,28.546358400024474,28.546358400024474,28.546358400024474,28.83483820001129,28.835398500028532,28.846484400040936,28.846484400040936,28.846484400040936,29.13475660001859,,,,,,,,,,,,,,,,,,,,352988,001,2025-03-20_15h54.10.886,Estimulo_ICE,2024.2.4,60.00034799069829,2025-03-20 15h54.16.261674 -0300,
Estimulo_3,12,12,0,2.2,-2.2,-2.2,2.2,3.19999999999999,-3.19999999999999,3.19999999999999,-3.19999999999999,0,1,1,2,,,,,,,,,0,12,12,12,,,,,,,,,,,,,,,,,,,,,,,,,,,,,,,,,,,,,29.146137000003364,,,,,,,,,,,,,,,,,,,,,,,29.135569800040685,29.146137000003364,29.146137000003364,29.146137000003364,29.434727100015152,29.43526810000185,29.446434800047427,29.446434800047427,29.446434800047427,29.734601300035138,,,,,,,,,,,,,,,,,,,,352988,001,2025-03-20_15h54.10.886,Estimulo_ICE,2024.2.4,60.00034799069829,2025-03-20 15h54.16.261674 -0300,
Estimulo_3,13,13,0,2.2,-2.2,-2.2,2.2,3.09999999999999,-3.09999999999999,3.09999999999999,-3.09999999999999,0,1,1,2,,,,,,,,,0,13,13,13,,,,,,,,,,,,,,,,,,,,,,,,,,,,,,,,,,,,,29.746249000017997,,,,,,,,,,,,,,,,,,,,,,,29.735426300030667,29.746249000017997,29.746249000017997,29.746249000017997,30.034667400002945,30.035214900039136,30.046225400001276,30.046225400001276,30.046225400001276,30.3350700000301,,,,,,,,,,,,,,,,,,,,352988,001,2025-03-20_15h54.10.886,Estimulo_ICE,2024.2.4,60.00034799069829,2025-03-20 15h54.16.261674 -0300,
Estimulo_3,14,14,0,2.2,-2.2,-2.2,2.2,2.99999999999999,-2.99999999999999,2.99999999999999,-2.99999999999999,0,1,1,2,,,,,,,,,0,14,14,14,,,,,,,,,,,,,,,,,,,,,,,,,,,,,,,,,,,,,30.34644140000455,,,,,,,,,,,,,,,,,,,,,,,30.335939300013706,30.34644140000455,30.34644140000455,30.34644140000455,30.6320829000324,30.632446100004017,30.645467700029258,30.645467700029258,30.645467700029258,30.93086340004811,30.945020400045905,30.945020400045905,30.945020400045905,,,,,,,,,,,,,,,,,352988,001,2025-03-20_15h54.10.886,Estimulo_ICE,2024.2.4,60.00034799069829,2025-03-20 15h54.16.261674 -0300,
Estimulo_3,15,15,0,2.2,-2.2,-2.2,2.2,2.89999999999999,-2.89999999999999,2.89999999999999,-2.89999999999999,0,1,1,2,,,,,,,,,0,15,15,15,,,,,,,,,,,,,,,,,,,,,,,,,,,,,,,,,,,,,30.945020400045905,,,,,,,,,,,,,,,,,,,,,,,30.93123490002472,30.945020400045905,30.945020400045905,30.945020400045905,31.23090810002759,31.231161300034728,31.245034700026736,31.245034700026736,31.245034700026736,31.53090220002923,31.54485130001558,31.54485130001558,31.54485130001558,31.245034700026736,31.245034700026736,31.245034700026736,,,,,,,,,,,,,,352988,001,2025-03-20_15h54.10.886,Estimulo_ICE,2024.2.4,60.00034799069829,2025-03-20 15h54.16.261674 -0300,
Estimulo_3,16,16,0,2.2,-2.2,-2.2,2.2,2.79999999999999,-2.79999999999999,2.79999999999999,-2.79999999999999,0,1,1,2,,,,,,,,,0,16,16,16,,,,,,,,,,,,,,,,,,,,,,,,,,,,,,,,,,,,,31.54485130001558,,,,,,,,,,,,,,,,,,,,,,,31.531276300025638,31.54485130001558,31.54485130001558,31.54485130001558,31.83072920003906,31.830972200026736,31.845028100011405,31.845028100011405,31.845028100011405,32.13091370003531,32.14474750001682,32.14474750001682,32.14474750001682,31.845028100011405,31.845028100011405,31.845028100011405,,,,,,,,,,,,,,352988,001,2025-03-20_15h54.10.886,Estimulo_ICE,2024.2.4,60.00034799069829,2025-03-20 15h54.16.261674 -0300,
Estimulo_3,17,17,0,2.2,-2.2,-2.2,2.2,2.69999999999999,-2.69999999999999,2.69999999999999,-2.69999999999999,0,1,1,2,,,,,,,,,0,17,17,17,,,,,,,,,,,,,,,,,,,,,,,,,,,,,,,,,,,,,32.14474750001682,,,,,,,,,,,,,,,,,,,,,,,32.13128410000354,32.14474750001682,32.14474750001682,32.14474750001682,32.431003900012,32.43124960002024,32.44483950000722,32.44483950000722,32.44483950000722,32.73072079999838,32.74490879999939,32.74490879999939,32.74490879999939,32.44483950000722,32.44483950000722,32.44483950000722,,,,,,,,,,,,,,352988,001,2025-03-20_15h54.10.886,Estimulo_ICE,2024.2.4,60.00034799069829,2025-03-20 15h54.16.261674 -0300,
Estimulo_3,18,18,0,2.2,-2.2,-2.2,2.2,2.59999999999999,-2.59999999999999,2.59999999999999,-2.59999999999999,0,1,1,2,,,,,,,,,0,18,18,18,,,,,,,,,,,,,,,,,,,,,,,,,,,,,,,,,,,,,32.74490879999939,,,,,,,,,,,,,,,,,,,,,,,32.731094699993264,32.74490879999939,32.74490879999939,32.74490879999939,33.03084880003007,33.03109940001741,33.04497340001399,33.04497340001399,33.04497340001399,33.33466400002362,,,,33.04497340001399,33.04497340001399,33.04497340001399,,,,,,,,,,,,,,352988,001,2025-03-20_15h54.10.886,Estimulo_ICE,2024.2.4,60.00034799069829,2025-03-20 15h54.16.261674 -0300,
Estimulo_3,19,19,0,2.2,-2.2,-2.2,2.2,2.49999999999999,-2.49999999999999,2.49999999999999,-2.49999999999999,0,1,1,2,,,,,,,,,0,19,19,19,,,,,,,,,,,,,,,,,,,,,,,,,,,,,,,,,,,,,33.346373400010634,,,,,,,,,,,,,,,,,,,,,,,33.3354749000282,33.346373400010634,33.346373400010634,33.346373400010634,33.65526850003516,33.656203699996695,33.679635100008454,33.679635100008454,33.679635100008454,33.933248300047126,,,,,,,,,,,,,,,,,,,,352988,001,2025-03-20_15h54.10.886,Estimulo_ICE,2024.2.4,60.00034799069829,2025-03-20 15h54.16.261674 -0300,
Estimulo_3,20,20,0,2.2,-2.2,-2.2,2.2,2.39999999999999,-2.39999999999999,2.39999999999999,-2.39999999999999,0,1,1,2,,,,,,,,,0,20,20,20,,,,,,,,,,,,,,,,,,,,,,,,,,,,,,,,,,,,,33.94567470002221,,,,,,,,,,,,,,,,,,,,,,,33.933932000014465,33.94567470002221,33.94567470002221,33.94567470002221,34.2346446000156,34.2351917999913,34.2461411000113,34.2461411000113,34.2461411000113,34.534636299998965,,,,,,,,,,,,,,,,,,,,352988,001,2025-03-20_15h54.10.886,Estimulo_ICE,2024.2.4,60.00034799069829,2025-03-20 15h54.16.261674 -0300,
Estimulo_3,21,21,0,2.2,-2.2,-2.2,2.2,2.29999999999999,-2.29999999999999,2.29999999999999,-2.29999999999999,0,1,1,2,,,,,,,,,0,21,21,21,,,,,,,,,,,,,,,,,,,,,,,,,,,,,,,,,,,,,34.54632310004672,,,,,,,,,,,,,,,,,,,,,,,34.53544820001116,34.54632310004672,34.54632310004672,34.54632310004672,34.847142500046175,34.847381500003394,34.861509200010914,34.861509200010914,34.861509200010914,35.147202100022696,,,,,,,,,,,,,,,,,,,,352988,001,2025-03-20_15h54.10.886,Estimulo_ICE,2024.2.4,60.00034799069829,2025-03-20 15h54.16.261674 -0300,
Estimulo_3,22,22,0,2.2,-2.2,-2.2,2.2,2.19999999999999,-2.19999999999999,2.19999999999999,-2.19999999999999,0,1,1,2,,,,,,,,,0,22,22,22,,,,,,,,,,,,,,,,,,,,,,,,,,,,,,,,,,,,,35.16141800000332,,,,,,,,,,,,,,,,,,,,,,,35.14755460002925,35.16141800000332,35.16141800000332,35.16141800000332,35.447125700011384,35.44736610003747,35.46168270002818,35.46168270002818,35.46168270002818,35.7471755000297,,,,,,,,,,,,,,,,,,,,352988,001,2025-03-20_15h54.10.886,Estimulo_ICE,2024.2.4,60.00034799069829,2025-03-20 15h54.16.261674 -0300,
Estimulo_3,23,23,0,2.2,-2.2,-2.2,2.2,2.09999999999999,-2.09999999999999,2.09999999999999,-2.09999999999999,0,1,1,2,,,,,,,,,0,23,23,23,,,,,,,,,,,,,,,,,,,,,,,,,,,,,,,,,,,,,35.76153230003547,,,,,,,,,,,,,,,,,,,,,,,35.74752890004311,35.76153230003547,35.76153230003547,35.76153230003547,36.04700389999198,36.047243000008166,36.06156580004608,36.06156580004608,36.06156580004608,36.34713140001986,,,,,,,,,,,,,,,,,,,,352988,001,2025-03-20_15h54.10.886,Estimulo_ICE,2024.2.4,60.00034799069829,2025-03-20 15h54.16.261674 -0300,
Estimulo_3,24,24,0,2.2,-2.2,-2.2,2.2,1.99999999999999,-1.99999999999999,1.99999999999999,-1.99999999999999,0,1,1,2,,,,,,,,,0,24,24,24,,,,,,,,,,,,,,,,,,,,,,,,,,,,,,,,,,,,,36.36165299999993,,,,,,,,,,,,,,,,,,,,,,,36.34748460003175,36.36165299999993,36.36165299999993,36.36165299999993,36.63847210002132,36.638931400026195,36.64554400002817,36.64554400002817,36.64554400002817,36.93339870002819,,,,,,,,,,,,,,,,,,,,352988,001,2025-03-20_15h54.10.886,Estimulo_ICE,2024.2.4,60.00034799069829,2025-03-20 15h54.16.261674 -0300,
Estimulo_3,25,25,0,2.2,-2.2,-2.2,2.2,1.89999999999999,-1.89999999999999,1.89999999999999,-1.89999999999999,0,1,1,2,,,,,,,,,0,25,25,25,,,,,,,,,,,,,,,,,,,,,,,,,,,,,,,,,,,,,36.945833800011314,,,,,,,,,,,,,,,,,,,,,,,36.93408770003589,36.945833800011314,36.945833800011314,36.945833800011314,37.23077880003257,37.23103120003361,37.24486680002883,37.24486680002883,37.24486680002883,37.5308081000112,37.5448898000177,37.5448898000177,37.5448898000177,37.24486680002883,37.24486680002883,37.24486680002883,,,,,,,,,,,,,,352988,001,2025-03-20_15h54.10.886,Estimulo_ICE,2024.2.4,60.00034799069829,2025-03-20 15h54.16.261674 -0300,
Estimulo_3,26,26,0,2.2,-2.2,-2.2,2.2,1.79999999999999,-1.79999999999999,1.79999999999999,-1.79999999999999,0,1,1,2,,,,,,,,,0,26,26,26,,,,,,,,,,,,,,,,,,,,,,,,,,,,,,,,,,,,,37.5448898000177,,,,,,,,,,,,,,,,,,,,,,,37.53116760001285,37.5448898000177,37.5448898000177,37.5448898000177,37.8310380000039,37.83129050000571,37.844859100005124,37.844859100005124,37.844859100005124,38.13086070003919,38.14489749999484,38.14489749999484,38.14489749999484,37.844859100005124,37.844859100005124,37.844859100005124,,,,,,,,,,,,,,352988,001,2025-03-20_15h54.10.886,Estimulo_ICE,2024.2.4,60.00034799069829,2025-03-20 15h54.16.261674 -0300,
Estimulo_3,27,27,0,2.2,-2.2,-2.2,2.2,1.69999999999999,-1.69999999999999,1.69999999999999,-1.69999999999999,0,1,1,2,,,,,,,,,0,27,27,27,,,,,,,,,,,,,,,,,,,,,,,,,,,,,,,,,,,,,38.14489749999484,,,,,,,,,,,,,,,,,,,,,,,38.131233200023416,38.14489749999484,38.14489749999484,38.14489749999484,38.430770400038455,38.431023200042546,38.44571450003423,38.44571450003423,38.44571450003423,38.73077840002952,38.74485330004245,38.74485330004245,38.74485330004245,38.44571450003423,38.44571450003423,38.44571450003423,,,,,,,,,,,,,,352988,001,2025-03-20_15h54.10.886,Estimulo_ICE,2024.2.4,60.00034799069829,2025-03-20 15h54.16.261674 -0300,
Estimulo_3,28,28,0,2.2,-2.2,-2.2,2.2,1.59999999999999,-1.59999999999999,1.59999999999999,-1.59999999999999,0,1,1,2,,,,,,,,,0,28,28,28,,,,,,,,,,,,,,,,,,,,,,,,,,,,,,,,,,,,,38.74485330004245,,,,,,,,,,,,,,,,,,,,,,,38.73114859999623,38.74485330004245,38.74485330004245,38.74485330004245,39.03086420003092,39.03110540000489,39.044968500034884,39.044968500034884,39.044968500034884,39.33071420004126,39.34491440001875,39.34491440001875,39.34491440001875,39.044968500034884,39.044968500034884,39.044968500034884,,,,,,,,,,,,,,352988,001,2025-03-20_15h54.10.886,Estimulo_ICE,2024.2.4,60.00034799069829,2025-03-20 15h54.16.261674 -0300,
Estimulo_3,29,29,0,2.2,-2.2,-2.2,2.2,1.49999999999998,-1.49999999999998,1.49999999999998,-1.49999999999998,0,1,1,2,,,,,,,,,0,29,29,29,,,,,,,,,,,,,,,,,,,,,,,,,,,,,,,,,,,,,39.34491440001875,,,,,,,,,,,,,,,,,,,,,,,39.331071400025394,39.34491440001875,39.34491440001875,39.34491440001875,39.65541810001014,39.65636080002878,39.67953399999533,39.67953399999533,39.67953399999533,39.93506570003228,,,,,,,,,,,,,,,,,,,,352988,001,2025-03-20_15h54.10.886,Estimulo_ICE,2024.2.4,60.00034799069829,2025-03-20 15h54.16.261674 -0300,
Estimulo_3,30,30,0,2.2,-2.2,-2.2,2.2,1.39999999999998,-1.39999999999998,1.39999999999998,-1.39999999999998,0,1,1,2,,,,,,,,,0,30,30,30,,,,,,,,,,,,,,,,,,,,,,,,,,,,,,,,,,,,,39.946259000047576,,,,,,,,,,,,,,,,,,,,,,,39.9359360000235,39.946259000047576,39.946259000047576,39.946259000047576,40.23541550000664,40.23600340000121,40.24633819999872,40.24633819999872,40.24633819999872,40.53523760003736,,,,,,,,,,,,,,,,,,,,352988,001,2025-03-20_15h54.10.886,Estimulo_ICE,2024.2.4,60.00034799069829,2025-03-20 15h54.16.261674 -0300,
Estimulo_3,31,31,0,2.2,-2.2,-2.2,2.2,1.29999999999998,-1.29999999999998,1.29999999999998,-1.29999999999998,0,1,1,2,,,,,,,,,0,31,31,31,,,,,,,,,,,,,,,,,,,,,,,,,,,,,,,,,,,,,40.54651090002153,,,,,,,,,,,,,,,,,,,,,,,40.536100700031966,40.54651090002153,40.54651090002153,40.54651090002153,40.833764900045935,40.83426120004151,40.845723400008865,40.845723400008865,40.845723400008865,41.13521249999758,,,,,,,,,,,,,,,,,,,,352988,001,2025-03-20_15h54.10.886,Estimulo_ICE,2024.2.4,60.00034799069829,2025-03-20 15h54.16.261674 -0300,
Estimulo_3,32,32,0,2.2,-2.2,-2.2,2.2,1.19999999999998,-1.19999999999998,1.19999999999998,-1.19999999999998,0,1,1,2,,,,,,,,,0,32,32,32,,,,,,,,,,,,,,,,,,,,,,,,,,,,,,,,,,,,,41.14637060003588,,,,,,,,,,,,,,,,,,,,,,,41.13608110003406,41.14637060003588,41.14637060003588,41.14637060003588,41.43512890004786,41.435710399993695,41.44630250002956,41.44630250002956,41.44630250002956,41.732194200041704,,,,,,,,,,,,,,,,,,,,352988,001,2025-03-20_15h54.10.886,Estimulo_ICE,2024.2.4,60.00034799069829,2025-03-20 15h54.16.261674 -0300,
Estimulo_3,33,33,0,2.2,-2.2,-2.2,2.2,1.09999999999998,-1.09999999999998,1.09999999999998,-1.09999999999998,0,1,1,2,,,,,,,,,0,33,33,33,,,,,,,,,,,,,,,,,,,,,,,,,,,,,,,,,,,,,41.746114400040824,,,,,,,,,,,,,,,,,,,,,,,41.732749600021634,41.746114400040824,41.746114400040824,41.746114400040824,42.03519100003177,42.03578070004005,42.046386100002564,42.046386100002564,42.046386100002564,42.33516280003823,,,,,,,,,,,,,,,,,,,,352988,001,2025-03-20_15h54.10.886,Estimulo_ICE,2024.2.4,60.00034799069829,2025-03-20 15h54.16.261674 -0300,
Estimulo_3,1,1,0,,,,,,,,,0,1,1,2,,,,,,,,,,,,,,,,,,,,,,,,,,,,,,,,,,,,,,,,,,,,,,,,,,,,,,,,,,,,,,,,,,,,,42.480663700029254,42.49430459999712,43.84849290002603,,,,,,,,,,,,,,,,,,,,,,,,,,,,,,352988,001,2025-03-20_15h54.10.886,Estimulo_ICE,2024.2.4,60.00034799069829,2025-03-20 15h54.16.261674 -0300,
Estimulo_10,0,0,0,1.1,-1.1,1.1,-1.1,2.2,-2.2,-2.2,2.2,0,2,2,9,,,,,,,,,,,,,,,,,,,,,,,,,,,,,,,,,,,,,0,0,0,0,,,,,,,,,43.99434390000533,,43.84864350000862,43.84910630004015,,,,,,,,,,,,,,,,,,,,,,,,,,,,,,,,,,,,43.97739920002641,43.99434390000533,43.99434390000533,43.99434390000533,44.16369240003405,44.163912200019695,44.17814570001792,44.17814570001792,44.17814570001792,44.46362749999389,,,,352988,001,2025-03-20_15h54.10.886,Estimulo_ICE,2024.2.4,60.00034799069829,2025-03-20 15h54.16.261674 -0300,
Estimulo_10,1,1,0,1.2,-1.2,1.2,-1.2,2.2,-2.2,-2.2,2.2,0,2,2,9,,,,,,,,,,,,,,,,,,,,,,,,,,,,,,,,,,,,,0,1,1,1,,,,,,,,,44.4781436000485,,,,,,,,,,,,,,,,,,,,,,,,,,,,,,,,,,,,,,,44.46398590004537,44.4781436000485,44.4781436000485,44.4781436000485,44.76373860001331,44.76397790003102,44.778289500041865,44.778289500041865,44.778289500041865,45.05134659999749,,,,352988,001,2025-03-20_15h54.10.886,Estimulo_ICE,2024.2.4,60.00034799069829,2025-03-20 15h54.16.261674 -0300,
Estimulo_10,2,2,0,1.3,-1.3,1.3,-1.3,2.2,-2.2,-2.2,2.2,0,2,2,9,,,,,,,,,,,,,,,,,,,,,,,,,,,,,,,,,,,,,0,2,2,2,,,,,,,,,45.06266970001161,,,,,,,,,,,,,,,,,,,,,,,,,,,,,,,,,,,,,,,45.05216320004547,45.06266970001161,45.06266970001161,45.06266970001161,45.35134140000446,45.35188880003989,45.36266149999574,45.36266149999574,45.36266149999574,45.64922449999722,45.66197320003994,45.66197320003994,45.66197320003994,352988,001,2025-03-20_15h54.10.886,Estimulo_ICE,2024.2.4,60.00034799069829,2025-03-20 15h54.16.261674 -0300,
,3,3,0,1.4,-1.4,1.4,-1.4,2.2,-2.2,-2.2,2.2,,,,,,,,,,,,,,,,,,,,,,,,,,,,,,,,,,,,,,,,,0,3,3,3,,,,,,,,,45.66197320003994,,,,,,,,,,,,,,,,,,,,,,,,,,,,,,,,,,,,,,,45.649788700044155,45.66197320003994,45.66197320003994,45.66197320003994,,,,,,,,,,,,,,,,,
