LoopName,thisN,thisTrialN,thisRepN,px1,px2,px3,px4,py1,py2,py3,py4,MainLoop.thisRepN,MainLoop.thisTrialN,MainLoop.thisN,MainLoop.thisIndex,loop_1.thisRepN,loop_1.thisTrialN,loop_1.thisN,loop_1.thisIndex,loop_2.thisRepN,loop_2.thisTrialN,loop_2.thisN,loop_2.thisIndex,loop_3.thisRepN,loop_3.thisTrialN,loop_3.thisN,loop_3.thisIndex,loop_4.thisRepN,loop_4.thisTrialN,loop_4.thisN,loop_4.thisIndex,loop_5.thisRepN,loop_5.thisTrialN,loop_5.thisN,loop_5.thisIndex,loop_6.thisRepN,loop_6.thisTrialN,loop_6.thisN,loop_6.thisIndex,loop_7.thisRepN,loop_7.thisTrialN,loop_7.thisN,loop_7.thisIndex,loop_8.thisRepN,loop_8.thisTrialN,loop_8.thisN,loop_8.thisIndex,loop_9.thisRepN,loop_9.thisTrialN,loop_9.thisN,loop_9.thisIndex,loop_10.thisRepN,loop_10.thisTrialN,loop_10.thisN,loop_10.thisIndex,loop_11.thisRepN,loop_11.thisTrialN,loop_11.thisN,loop_11.thisIndex,loop_12.thisRepN,loop_12.thisTrialN,loop_12.thisN,loop_12.thisIndex,thisRow.t,notes,codigo.started,codigo.stopped,trial.started,image.started,image_2.started,polygon.started,trial.stopped,trial_2.started,image_3.started,image_4.started,polygon_2.started,trial_2.stopped,trial_3.started,image_5.started,image_6.started,polygon_3.started,trial_3.stopped,trial_4.started,image_7.started,image_8.started,polygon_4.started,image_7.stopped,image_8.stopped,polygon_4.stopped,trial_4.stopped,image_5.stopped,image_6.stopped,polygon_3.stopped,_intertrial_interval_.started,polygon_5.started,_intertrial_interval_.stopped,trial_5.started,image_9.started,polygon_6.started,image_10.started,trial_5.stopped,trial_6.started,image_11.started,image_12.started,polygon_7.started,trial_6.stopped,image_9.stopped,polygon_6.stopped,image_10.stopped,image_11.stopped,image_12.stopped,polygon_7.stopped,participant,session,date,expName,psychopyVersion,frameRate,expStart,
Estimulo_1,0,0,0,4.4,-4.4,4.4,-4.4,2.2,-2.2,-2.2,2.2,0,0,0,0,0,0,0,0,,,,,,,,,,,,,,,,,,,,,,,,,,,,,,,,,,,,,,,,,,,,,0.049207099999875936,,0.023142600000028324,0.023445999999239575,0.03464159999930416,0.049207099999875936,0.049207099999875936,0.049207099999875936,0.3345282000000225,0.3347470999997313,0.34908029999951395,0.34908029999951395,0.34908029999951395,0.634383099999468,,,,,,,,,,,,,,,,,,,,,,,,,,,,,,,,,,,,414239,001,2025-03-17_15h21.46.858,Estimulo_ICE,2024.2.4,60.04116422219055,2025-03-17 15h21.52.993145 -0300,
Estimulo_1,1,1,0,4.3,-4.3,4.3,-4.3,2.2,-2.2,-2.2,2.2,0,0,0,0,0,1,1,1,,,,,,,,,,,,,,,,,,,,,,,,,,,,,,,,,,,,,,,,,,,,,0.6489627000000837,,,,0.6347360999998273,0.6489627000000837,0.6489627000000837,0.6489627000000837,0.9345436999992671,0.9347780999996758,0.9488244999993185,0.9488244999993185,0.9488244999993185,1.2345140999996147,,,,,,,,,,,,,,,,,,,,,,,,,,,,,,,,,,,,414239,001,2025-03-17_15h21.46.858,Estimulo_ICE,2024.2.4,60.04116422219055,2025-03-17 15h21.52.993145 -0300,
Estimulo_1,2,2,0,4.2,-4.2,4.2,-4.2,2.2,-2.2,-2.2,2.2,0,0,0,0,0,2,2,2,,,,,,,,,,,,,,,,,,,,,,,,,,,,,,,,,,,,,,,,,,,,,1.249027599999863,,,,1.2348558999992747,1.249027599999863,1.249027599999863,1.249027599999863,1.5343471999995018,1.5345893999992768,1.5490584999997736,1.5490584999997736,1.5490584999997736,1.8346462999998039,,,,,,,,,,,,,,,,,,,,,,,,,,,,,,,,,,,,414239,001,2025-03-17_15h21.46.858,Estimulo_ICE,2024.2.4,60.04116422219055,2025-03-17 15h21.52.993145 -0300,
Estimulo_1,3,3,0,4.1,-4.1,4.1,-4.1,2.2,-2.2,-2.2,2.2,0,0,0,0,0,3,3,3,,,,,,,,,,,,,,,,,,,,,,,,,,,,,,,,,,,,,,,,,,,,,1.848781499999859,,,,1.8349916999995912,1.848781499999859,1.848781499999859,1.848781499999859,2.134328799999821,2.134567699999934,2.1489627000000837,2.1489627000000837,2.1489627000000837,2.4344752999995762,,,,,,,,,,,,,,,,,,,,,,,,,,,,,,,,,,,,414239,001,2025-03-17_15h21.46.858,Estimulo_ICE,2024.2.4,60.04116422219055,2025-03-17 15h21.52.993145 -0300,
Estimulo_1,4,4,0,4,-4,4,-4,2.2,-2.2,-2.2,2.2,0,0,0,0,0,4,4,4,,,,,,,,,,,,,,,,,,,,,,,,,,,,,,,,,,,,,,,,,,,,,2.4490061999995305,,,,2.4348151999993206,2.4490061999995305,2.4490061999995305,2.4490061999995305,2.7344898999999714,2.7347273999994286,2.7489871999996467,2.7489871999996467,2.7489871999996467,3.0343598999997994,,,,,,,,,,,,,,,,,,,,,,,,,,,,,,,,,,,,414239,001,2025-03-17_15h21.46.858,Estimulo_ICE,2024.2.4,60.04116422219055,2025-03-17 15h21.52.993145 -0300,
Estimulo_1,5,5,0,3.9,-3.9,3.9,-3.9,2.2,-2.2,-2.2,2.2,0,0,0,0,0,5,5,5,,,,,,,,,,,,,,,,,,,,,,,,,,,,,,,,,,,,,,,,,,,,,3.048919599999863,,,,3.0347054999992906,3.048919599999863,3.048919599999863,3.048919599999863,3.3343135999994047,3.3345484000001306,3.348943699999836,3.348943699999836,3.348943699999836,3.6275777000000744,,,,,,,,,,,,,,,,,,,,,,,,,,,,,,,,,,,,414239,001,2025-03-17_15h21.46.858,Estimulo_ICE,2024.2.4,60.04116422219055,2025-03-17 15h21.52.993145 -0300,
Estimulo_1,6,6,0,3.8,-3.8,3.8,-3.8,2.2,-2.2,-2.2,2.2,0,0,0,0,0,6,6,6,,,,,,,,,,,,,,,,,,,,,,,,,,,,,,,,,,,,,,,,,,,,,3.650229099999706,,,,3.6289469999992434,3.650229099999706,3.650229099999706,3.650229099999706,3.9398858999993536,3.940585100000135,3.950571499999569,3.950571499999569,3.950571499999569,4.240134799999396,,,,,,,,,,,,,,,,,,,,,,,,,,,,,,,,,,,,414239,001,2025-03-17_15h21.46.858,Estimulo_ICE,2024.2.4,60.04116422219055,2025-03-17 15h21.52.993145 -0300,
Estimulo_1,7,7,0,3.7,-3.7,3.7,-3.7,2.2,-2.2,-2.2,2.2,0,0,0,0,0,7,7,7,,,,,,,,,,,,,,,,,,,,,,,,,,,,,,,,,,,,,,,,,,,,,4.2506424999992305,,,,4.241055499999675,4.2506424999992305,4.2506424999992305,4.2506424999992305,4.539775100000043,4.540404800000033,4.550635399999919,4.550635399999919,4.550635399999919,4.836747299999843,,,,,,,,,,,,,,,,,,,,,,,,,,,,,,,,,,,,414239,001,2025-03-17_15h21.46.858,Estimulo_ICE,2024.2.4,60.04116422219055,2025-03-17 15h21.52.993145 -0300,
Estimulo_1,8,8,0,3.6,-3.6,3.6,-3.6,2.2,-2.2,-2.2,2.2,0,0,0,0,0,8,8,8,,,,,,,,,,,,,,,,,,,,,,,,,,,,,,,,,,,,,,,,,,,,,4.849633099999664,,,,4.83733519999987,4.849633099999664,4.849633099999664,4.849633099999664,5.136721799999577,5.137130099999922,5.149523199999749,5.149523199999749,5.149523199999749,5.4347601999998005,,,,,,,,,,,,,,,,,,,,,,,,,,,,,,,,,,,,414239,001,2025-03-17_15h21.46.858,Estimulo_ICE,2024.2.4,60.04116422219055,2025-03-17 15h21.52.993145 -0300,
Estimulo_1,9,9,0,3.5,-3.5,3.5,-3.5,2.2,-2.2,-2.2,2.2,0,0,0,0,0,9,9,9,,,,,,,,,,,,,,,,,,,,,,,,,,,,,,,,,,,,,,,,,,,,,5.448998199999551,,,,5.435151399999995,5.448998199999551,5.448998199999551,5.448998199999551,5.734511399999974,5.734748399999262,5.748931799999809,5.748931799999809,5.748931799999809,6.034446899999239,,,,,,,,,,,,,,,,,,,,,,,,,,,,,,,,,,,,414239,001,2025-03-17_15h21.46.858,Estimulo_ICE,2024.2.4,60.04116422219055,2025-03-17 15h21.52.993145 -0300,
Estimulo_1,10,10,0,3.39999999999999,-3.39999999999999,3.39999999999999,-3.39999999999999,2.2,-2.2,-2.2,2.2,0,0,0,0,0,10,10,10,,,,,,,,,,,,,,,,,,,,,,,,,,,,,,,,,,,,,,,,,,,,,6.048968799999784,,,,6.034788699999808,6.048968799999784,6.048968799999784,6.048968799999784,6.334278899999845,6.3345173999996405,6.348969499999839,6.348969499999839,6.348969499999839,6.634486599999946,,,,,,,,,,,,,,,,,,,,,,,,,,,,,,,,,,,,414239,001,2025-03-17_15h21.46.858,Estimulo_ICE,2024.2.4,60.04116422219055,2025-03-17 15h21.52.993145 -0300,
Estimulo_1,11,11,0,3.29999999999999,-3.29999999999999,3.29999999999999,-3.29999999999999,2.2,-2.2,-2.2,2.2,0,0,0,0,0,11,11,11,,,,,,,,,,,,,,,,,,,,,,,,,,,,,,,,,,,,,,,,,,,,,6.64884499999971,,,,6.63483929999984,6.64884499999971,6.64884499999971,6.64884499999971,6.934401499999694,6.934636699999828,6.948722199999793,6.948722199999793,6.948722199999793,7.234369299999344,,,,,,,,,,,,,,,,,,,,,,,,,,,,,,,,,,,,414239,001,2025-03-17_15h21.46.858,Estimulo_ICE,2024.2.4,60.04116422219055,2025-03-17 15h21.52.993145 -0300,
Estimulo_1,12,12,0,3.19999999999999,-3.19999999999999,3.19999999999999,-3.19999999999999,2.2,-2.2,-2.2,2.2,0,0,0,0,0,12,12,12,,,,,,,,,,,,,,,,,,,,,,,,,,,,,,,,,,,,,,,,,,,,,7.24876569999924,,,,7.234712999999829,7.24876569999924,7.24876569999924,7.24876569999924,7.534419499999785,7.534657999999581,7.5489699999998265,7.5489699999998265,7.5489699999998265,7.834268399999928,,,,,,,,,,,,,,,,,,,,,,,,,,,,,,,,,,,,414239,001,2025-03-17_15h21.46.858,Estimulo_ICE,2024.2.4,60.04116422219055,2025-03-17 15h21.52.993145 -0300,
Estimulo_1,13,13,0,3.09999999999999,-3.09999999999999,3.09999999999999,-3.09999999999999,2.2,-2.2,-2.2,2.2,0,0,0,0,0,13,13,13,,,,,,,,,,,,,,,,,,,,,,,,,,,,,,,,,,,,,,,,,,,,,7.848891499999809,,,,7.8346136999998635,7.848891499999809,7.848891499999809,7.848891499999809,8.134278799999265,8.134517099999357,8.148872299999312,8.148872299999312,8.148872299999312,8.434377900000072,,,,,,,,,,,,,,,,,,,,,,,,,,,,,,,,,,,,414239,001,2025-03-17_15h21.46.858,Estimulo_ICE,2024.2.4,60.04116422219055,2025-03-17 15h21.52.993145 -0300,
Estimulo_1,14,14,0,2.99999999999999,-2.99999999999999,2.99999999999999,-2.99999999999999,2.2,-2.2,-2.2,2.2,0,0,0,0,0,14,14,14,,,,,,,,,,,,,,,,,,,,,,,,,,,,,,,,,,,,,,,,,,,,,8.448704200000066,,,,8.434720799999923,8.448704200000066,8.448704200000066,8.448704200000066,8.734400299999834,8.734637900000052,8.748933699999725,8.748933699999725,8.748933699999725,9.034417699999722,,,,,,,,,,,,,,,,,,,,,,,,,,,,,,,,,,,,414239,001,2025-03-17_15h21.46.858,Estimulo_ICE,2024.2.4,60.04116422219055,2025-03-17 15h21.52.993145 -0300,
Estimulo_1,15,15,0,2.89999999999999,-2.89999999999999,2.89999999999999,-2.89999999999999,2.2,-2.2,-2.2,2.2,0,0,0,0,0,15,15,15,,,,,,,,,,,,,,,,,,,,,,,,,,,,,,,,,,,,,,,,,,,,,9.04867379999996,,,,9.034763099999509,9.04867379999996,9.04867379999996,9.04867379999996,9.334371500000088,9.334607899999355,9.348924999999326,9.348924999999326,9.348924999999326,9.634386599999743,,,,,,,,,,,,,,,,,,,,,,,,,,,,,,,,,,,,414239,001,2025-03-17_15h21.46.858,Estimulo_ICE,2024.2.4,60.04116422219055,2025-03-17 15h21.52.993145 -0300,
Estimulo_1,16,16,0,2.79999999999999,-2.79999999999999,2.79999999999999,-2.79999999999999,2.2,-2.2,-2.2,2.2,0,0,0,0,0,16,16,16,,,,,,,,,,,,,,,,,,,,,,,,,,,,,,,,,,,,,,,,,,,,,9.648928199999318,,,,9.634731899999679,9.648928199999318,9.648928199999318,9.648928199999318,9.936523599999418,9.936933699999827,9.949614699999984,9.949614699999984,9.949614699999984,10.236753099999987,,,,,,,,,,,,,,,,,,,,,,,,,,,,,,,,,,,,414239,001,2025-03-17_15h21.46.858,Estimulo_ICE,2024.2.4,60.04116422219055,2025-03-17 15h21.52.993145 -0300,
Estimulo_1,17,17,0,2.69999999999999,-2.69999999999999,2.69999999999999,-2.69999999999999,2.2,-2.2,-2.2,2.2,0,0,0,0,0,17,17,17,,,,,,,,,,,,,,,,,,,,,,,,,,,,,,,,,,,,,,,,,,,,,10.249474299999747,,,,10.237350499999593,10.249474299999747,10.249474299999747,10.249474299999747,10.53450359999988,10.534716799999842,10.549024899999495,10.549024899999495,10.549024899999495,10.836527399999795,,,,,,,,,,,,,,,,,,,,,,,,,,,,,,,,,,,,414239,001,2025-03-17_15h21.46.858,Estimulo_ICE,2024.2.4,60.04116422219055,2025-03-17 15h21.52.993145 -0300,
Estimulo_1,18,18,0,2.59999999999999,-2.59999999999999,2.59999999999999,-2.59999999999999,2.2,-2.2,-2.2,2.2,0,0,0,0,0,18,18,18,,,,,,,,,,,,,,,,,,,,,,,,,,,,,,,,,,,,,,,,,,,,,10.849714299999505,,,,10.837121900000056,10.849714299999505,10.849714299999505,10.849714299999505,11.134889099999782,11.135168199999498,11.149025199999414,11.149025199999414,11.149025199999414,11.434868699999242,,,,,,,,,,,,,,,,,,,,,,,,,,,,,,,,,,,,414239,001,2025-03-17_15h21.46.858,Estimulo_ICE,2024.2.4,60.04116422219055,2025-03-17 15h21.52.993145 -0300,
Estimulo_1,19,19,0,2.49999999999999,-2.49999999999999,2.49999999999999,-2.49999999999999,2.2,-2.2,-2.2,2.2,0,0,0,0,0,19,19,19,,,,,,,,,,,,,,,,,,,,,,,,,,,,,,,,,,,,,,,,,,,,,11.448942799999713,,,,11.435273699999925,11.448942799999713,11.448942799999713,11.448942799999713,11.73435100000006,11.73458810000011,11.748683199999505,11.748683199999505,11.748683199999505,12.034416399999827,,,,,,,,,,,,,,,,,,,,,,,,,,,,,,,,,,,,414239,001,2025-03-17_15h21.46.858,Estimulo_ICE,2024.2.4,60.04116422219055,2025-03-17 15h21.52.993145 -0300,
Estimulo_1,20,20,0,2.39999999999999,-2.39999999999999,2.39999999999999,-2.39999999999999,2.2,-2.2,-2.2,2.2,0,0,0,0,0,20,20,20,,,,,,,,,,,,,,,,,,,,,,,,,,,,,,,,,,,,,,,,,,,,,12.04868339999939,,,,12.034763099999509,12.04868339999939,12.04868339999939,12.04868339999939,12.334290599999804,12.334530399999494,12.348896099999365,12.348896099999365,12.348896099999365,12.634368099999847,,,,,,,,,,,,,,,,,,,,,,,,,,,,,,,,,,,,414239,001,2025-03-17_15h21.46.858,Estimulo_ICE,2024.2.4,60.04116422219055,2025-03-17 15h21.52.993145 -0300,
Estimulo_1,21,21,0,2.29999999999999,-2.29999999999999,2.29999999999999,-2.29999999999999,2.2,-2.2,-2.2,2.2,0,0,0,0,0,21,21,21,,,,,,,,,,,,,,,,,,,,,,,,,,,,,,,,,,,,,,,,,,,,,12.648887800000011,,,,12.634715999999571,12.648887800000011,12.648887800000011,12.648887800000011,12.934340199999497,12.934574599999905,12.948778500000117,12.948778500000117,12.948778500000117,13.234320199999274,,,,,,,,,,,,,,,,,,,,,,,,,,,,,,,,,,,,414239,001,2025-03-17_15h21.46.858,Estimulo_ICE,2024.2.4,60.04116422219055,2025-03-17 15h21.52.993145 -0300,
Estimulo_1,22,22,0,2.19999999999999,-2.19999999999999,2.19999999999999,-2.19999999999999,2.2,-2.2,-2.2,2.2,0,0,0,0,0,22,22,22,,,,,,,,,,,,,,,,,,,,,,,,,,,,,,,,,,,,,,,,,,,,,13.248817199999394,,,,13.23466499999995,13.248817199999394,13.248817199999394,13.248817199999394,13.534222899999804,13.534460999999283,13.548904899999798,13.548904899999798,13.548904899999798,13.834350099999938,,,,,,,,,,,,,,,,,,,,,,,,,,,,,,,,,,,,414239,001,2025-03-17_15h21.46.858,Estimulo_ICE,2024.2.4,60.04116422219055,2025-03-17 15h21.52.993145 -0300,
Estimulo_1,23,23,0,2.09999999999999,-2.09999999999999,2.09999999999999,-2.09999999999999,2.2,-2.2,-2.2,2.2,0,0,0,0,0,23,23,23,,,,,,,,,,,,,,,,,,,,,,,,,,,,,,,,,,,,,,,,,,,,,13.848837900000035,,,,13.834696099999746,13.848837900000035,13.848837900000035,13.848837900000035,14.134328000000096,14.13456319999932,14.148823399999856,14.148823399999856,14.148823399999856,14.434366499999669,,,,,,,,,,,,,,,,,,,,,,,,,,,,,,,,,,,,414239,001,2025-03-17_15h21.46.858,Estimulo_ICE,2024.2.4,60.04116422219055,2025-03-17 15h21.52.993145 -0300,
Estimulo_1,24,24,0,1.99999999999999,-1.99999999999999,1.99999999999999,-1.99999999999999,2.2,-2.2,-2.2,2.2,0,0,0,0,0,24,24,24,,,,,,,,,,,,,,,,,,,,,,,,,,,,,,,,,,,,,,,,,,,,,14.448626899999908,,,,14.43471259999933,14.448626899999908,14.448626899999908,14.448626899999908,14.734204999999747,14.734443499999543,14.748952199999621,14.748952199999621,14.748952199999621,15.034361999999419,,,,,,,,,,,,,,,,,,,,,,,,,,,,,,,,,,,,414239,001,2025-03-17_15h21.46.858,Estimulo_ICE,2024.2.4,60.04116422219055,2025-03-17 15h21.52.993145 -0300,
Estimulo_1,25,25,0,1.89999999999999,-1.89999999999999,1.89999999999999,-1.89999999999999,2.2,-2.2,-2.2,2.2,0,0,0,0,0,25,25,25,,,,,,,,,,,,,,,,,,,,,,,,,,,,,,,,,,,,,,,,,,,,,15.048869700000068,,,,15.034709799999291,15.048869700000068,15.048869700000068,15.048869700000068,15.334166199999345,15.334401699999944,15.348824899999272,15.348824899999272,15.348824899999272,15.634387699999934,,,,,,,,,,,,,,,,,,,,,,,,,,,,,,,,,,,,414239,001,2025-03-17_15h21.46.858,Estimulo_ICE,2024.2.4,60.04116422219055,2025-03-17 15h21.52.993145 -0300,
Estimulo_1,26,26,0,1.79999999999999,-1.79999999999999,1.79999999999999,-1.79999999999999,2.2,-2.2,-2.2,2.2,0,0,0,0,0,26,26,26,,,,,,,,,,,,,,,,,,,,,,,,,,,,,,,,,,,,,,,,,,,,,15.648628999999346,,,,15.634742199999891,15.648628999999346,15.648628999999346,15.648628999999346,15.934473999999682,15.934720399999605,15.94885769999928,15.94885769999928,15.94885769999928,16.234330499999487,,,,,,,,,,,,,,,,,,,,,,,,,,,,,,,,,,,,414239,001,2025-03-17_15h21.46.858,Estimulo_ICE,2024.2.4,60.04116422219055,2025-03-17 15h21.52.993145 -0300,
Estimulo_1,27,27,0,1.69999999999999,-1.69999999999999,1.69999999999999,-1.69999999999999,2.2,-2.2,-2.2,2.2,0,0,0,0,0,27,27,27,,,,,,,,,,,,,,,,,,,,,,,,,,,,,,,,,,,,,,,,,,,,,16.24861409999994,,,,16.234674199999972,16.24861409999994,16.24861409999994,16.24861409999994,16.5341755999998,16.534416200000123,16.548822499999915,16.548822499999915,16.548822499999915,16.83427329999995,,,,,,,,,,,,,,,,,,,,,,,,,,,,,,,,,,,,414239,001,2025-03-17_15h21.46.858,Estimulo_ICE,2024.2.4,60.04116422219055,2025-03-17 15h21.52.993145 -0300,
Estimulo_1,28,28,0,1.59999999999999,-1.59999999999999,1.59999999999999,-1.59999999999999,2.2,-2.2,-2.2,2.2,0,0,0,0,0,28,28,28,,,,,,,,,,,,,,,,,,,,,,,,,,,,,,,,,,,,,,,,,,,,,16.848805699999502,,,,16.834622999999738,16.848805699999502,16.848805699999502,16.848805699999502,17.13429019999967,17.13452739999957,17.148861699999543,17.148861699999543,17.148861699999543,17.43433829999958,,,,,,,,,,,,,,,,,,,,,,,,,,,,,,,,,,,,414239,001,2025-03-17_15h21.46.858,Estimulo_ICE,2024.2.4,60.04116422219055,2025-03-17 15h21.52.993145 -0300,
Estimulo_1,29,29,0,1.49999999999999,-1.49999999999998,1.49999999999999,-1.49999999999998,2.2,-2.2,-2.2,2.2,0,0,0,0,0,29,29,29,,,,,,,,,,,,,,,,,,,,,,,,,,,,,,,,,,,,,,,,,,,,,17.448799400000098,,,,17.434682999999495,17.448799400000098,17.448799400000098,17.448799400000098,17.734284399999524,17.734523299999637,17.74886189999961,17.74886189999961,17.74886189999961,18.034286000000066,,,,,,,,,,,,,,,,,,,,,,,,,,,,,,,,,,,,414239,001,2025-03-17_15h21.46.858,Estimulo_ICE,2024.2.4,60.04116422219055,2025-03-17 15h21.52.993145 -0300,
Estimulo_1,30,30,0,1.39999999999999,-1.39999999999998,1.39999999999999,-1.39999999999998,2.2,-2.2,-2.2,2.2,0,0,0,0,0,30,30,30,,,,,,,,,,,,,,,,,,,,,,,,,,,,,,,,,,,,,,,,,,,,,18.04856319999999,,,,18.034633199999917,18.04856319999999,18.04856319999999,18.04856319999999,18.334320399999342,18.334556199999497,18.34883119999995,18.34883119999995,18.34883119999995,18.634363199999825,,,,,,,,,,,,,,,,,,,,,,,,,,,,,,,,,,,,414239,001,2025-03-17_15h21.46.858,Estimulo_ICE,2024.2.4,60.04116422219055,2025-03-17 15h21.52.993145 -0300,
Estimulo_1,31,31,0,1.29999999999999,-1.29999999999998,1.29999999999999,-1.29999999999998,2.2,-2.2,-2.2,2.2,0,0,0,0,0,31,31,31,,,,,,,,,,,,,,,,,,,,,,,,,,,,,,,,,,,,,,,,,,,,,18.648609099999703,,,,18.634710299999824,18.648609099999703,18.648609099999703,18.648609099999703,18.934344399999645,18.934584300000097,18.9488080000001,18.9488080000001,18.9488080000001,19.234292000000096,,,,,,,,,,,,,,,,,,,,,,,,,,,,,,,,,,,,414239,001,2025-03-17_15h21.46.858,Estimulo_ICE,2024.2.4,60.04116422219055,2025-03-17 15h21.52.993145 -0300,
Estimulo_1,32,32,0,1.19999999999999,-1.19999999999998,1.19999999999999,-1.19999999999998,2.2,-2.2,-2.2,2.2,0,0,0,0,0,32,32,32,,,,,,,,,,,,,,,,,,,,,,,,,,,,,,,,,,,,,,,,,,,,,19.248567799999364,,,,19.234643199999482,19.248567799999364,19.248567799999364,19.248567799999364,19.53754459999982,19.53804510000009,19.549752999999328,19.549752999999328,19.549752999999328,19.83754820000013,,,,,,,,,,,,,,,,,,,,,,,,,,,,,,,,,,,,414239,001,2025-03-17_15h21.46.858,Estimulo_ICE,2024.2.4,60.04116422219055,2025-03-17 15h21.52.993145 -0300,
Estimulo_1,33,33,0,1.09999999999999,-1.09999999999998,1.09999999999999,-1.09999999999998,2.2,-2.2,-2.2,2.2,0,0,0,0,0,33,33,33,,,,,,,,,,,,,,,,,,,,,,,,,,,,,,,,,,,,,,,,,,,,,19.849705300000096,,,,19.838268499999685,19.849705300000096,19.849705300000096,19.849705300000096,20.13759889999983,20.13809289999972,20.149639499999466,20.149639499999466,20.149639499999466,20.437844099999893,,,,,,,,,,,,,,,,,,,,,,,,,,,,,,,,,,,,414239,001,2025-03-17_15h21.46.858,Estimulo_ICE,2024.2.4,60.04116422219055,2025-03-17 15h21.52.993145 -0300,
Estimulo_1,0,0,0,4.4,-4.4,4.4,-4.4,2.2,-2.2,-2.2,2.2,0,0,0,0,,,,,,,,,,,,,,,,,0,0,0,0,,,,,,,,,,,,,,,,,,,,,,,,,,,,,20.514882499999658,,,,,,,,,,,,,,20.503753899999538,20.514882499999658,20.514882499999658,20.514882499999658,20.718012799999997,20.718250899999475,20.73190009999962,20.73190009999962,20.73190009999962,21.03222310000001,21.03222310000001,21.03222310000001,21.017839999999524,,,,,,,,,,,,,,,,,,,,,,,414239,001,2025-03-17_15h21.46.858,Estimulo_ICE,2024.2.4,60.04116422219055,2025-03-17 15h21.52.993145 -0300,
Estimulo_1,1,1,0,4.3,-4.3,4.3,-4.3,2.2,-2.2,-2.2,2.2,0,0,0,0,,,,,,,,,,,,,,,,,0,1,1,1,,,,,,,,,,,,,,,,,,,,,,,,,,,,,21.03222310000001,,,,,,,,,,,,,,21.01820679999946,21.03222310000001,21.03222310000001,21.03222310000001,21.3180212999996,21.318266599999333,21.33203969999977,21.33203969999977,21.33203969999977,21.63208940000004,21.63208940000004,21.63208940000004,21.617919299999812,21.33203969999977,21.33203969999977,21.33203969999977,,,,,,,,,,,,,,,,,,,,414239,001,2025-03-17_15h21.46.858,Estimulo_ICE,2024.2.4,60.04116422219055,2025-03-17 15h21.52.993145 -0300,
Estimulo_1,2,2,0,4.2,-4.2,4.2,-4.2,2.2,-2.2,-2.2,2.2,0,0,0,0,,,,,,,,,,,,,,,,,0,2,2,2,,,,,,,,,,,,,,,,,,,,,,,,,,,,,21.63208940000004,,,,,,,,,,,,,,21.618292099999962,21.63208940000004,21.63208940000004,21.63208940000004,21.91799219999939,21.91824649999944,21.932094799999504,21.932094799999504,21.932094799999504,22.232065799999873,22.232065799999873,22.232065799999873,22.2178473999993,21.932094799999504,21.932094799999504,21.932094799999504,,,,,,,,,,,,,,,,,,,,414239,001,2025-03-17_15h21.46.858,Estimulo_ICE,2024.2.4,60.04116422219055,2025-03-17 15h21.52.993145 -0300,
Estimulo_1,3,3,0,4.1,-4.1,4.1,-4.1,2.2,-2.2,-2.2,2.2,0,0,0,0,,,,,,,,,,,,,,,,,0,3,3,3,,,,,,,,,,,,,,,,,,,,,,,,,,,,,22.232065799999873,,,,,,,,,,,,,,22.218214599999556,22.232065799999873,22.232065799999873,22.232065799999873,22.520648899999287,22.52111629999945,22.532896899999287,22.532896899999287,22.532896899999287,22.83223799999996,22.83223799999996,22.83223799999996,22.818775799999457,22.532896899999287,22.532896899999287,22.532896899999287,,,,,,,,,,,,,,,,,,,,414239,001,2025-03-17_15h21.46.858,Estimulo_ICE,2024.2.4,60.04116422219055,2025-03-17 15h21.52.993145 -0300,
Estimulo_1,4,4,0,4,-4,4,-4,2.2,-2.2,-2.2,2.2,0,0,0,0,,,,,,,,,,,,,,,,,0,4,4,4,,,,,,,,,,,,,,,,,,,,,,,,,,,,,22.83223799999996,,,,,,,,,,,,,,22.81922459999987,22.83223799999996,22.83223799999996,22.83223799999996,23.118572800000038,23.118881399999736,23.132316599999285,23.132316599999285,23.132316599999285,23.432019699999728,23.432019699999728,23.432019699999728,23.417994599999474,23.132316599999285,23.132316599999285,23.132316599999285,,,,,,,,,,,,,,,,,,,,414239,001,2025-03-17_15h21.46.858,Estimulo_ICE,2024.2.4,60.04116422219055,2025-03-17 15h21.52.993145 -0300,
Estimulo_1,5,5,0,3.9,-3.9,3.9,-3.9,2.2,-2.2,-2.2,2.2,0,0,0,0,,,,,,,,,,,,,,,,,0,5,5,5,,,,,,,,,,,,,,,,,,,,,,,,,,,,,23.432019699999728,,,,,,,,,,,,,,23.418363799999497,23.432019699999728,23.432019699999728,23.432019699999728,23.71797499999957,23.718232100000023,23.732072899999366,23.732072899999366,23.732072899999366,24.032066199999463,24.032066199999463,24.032066199999463,24.01804379999976,23.732072899999366,23.732072899999366,23.732072899999366,,,,,,,,,,,,,,,,,,,,414239,001,2025-03-17_15h21.46.858,Estimulo_ICE,2024.2.4,60.04116422219055,2025-03-17 15h21.52.993145 -0300,
Estimulo_1,6,6,0,3.8,-3.8,3.8,-3.8,2.2,-2.2,-2.2,2.2,0,0,0,0,,,,,,,,,,,,,,,,,0,6,6,6,,,,,,,,,,,,,,,,,,,,,,,,,,,,,24.032066199999463,,,,,,,,,,,,,,24.018411399999422,24.032066199999463,24.032066199999463,24.032066199999463,24.31795189999957,24.31820499999958,24.331846199999745,24.331846199999745,24.331846199999745,24.632064399999763,24.632064399999763,24.632064399999763,24.618030699999508,24.331846199999745,24.331846199999745,24.331846199999745,,,,,,,,,,,,,,,,,,,,414239,001,2025-03-17_15h21.46.858,Estimulo_ICE,2024.2.4,60.04116422219055,2025-03-17 15h21.52.993145 -0300,
Estimulo_1,7,7,0,3.7,-3.7,3.7,-3.7,2.2,-2.2,-2.2,2.2,0,0,0,0,,,,,,,,,,,,,,,,,0,7,7,7,,,,,,,,,,,,,,,,,,,,,,,,,,,,,24.632064399999763,,,,,,,,,,,,,,24.61840570000004,24.632064399999763,24.632064399999763,24.632064399999763,24.917834399999265,24.91809259999991,24.932169099999555,24.932169099999555,24.932169099999555,25.232044399999722,25.232044399999722,25.232044399999722,25.21792219999952,24.932169099999555,24.932169099999555,24.932169099999555,,,,,,,,,,,,,,,,,,,,414239,001,2025-03-17_15h21.46.858,Estimulo_ICE,2024.2.4,60.04116422219055,2025-03-17 15h21.52.993145 -0300,
Estimulo_1,8,8,0,3.6,-3.6,3.6,-3.6,2.2,-2.2,-2.2,2.2,0,0,0,0,,,,,,,,,,,,,,,,,0,8,8,8,,,,,,,,,,,,,,,,,,,,,,,,,,,,,25.232044399999722,,,,,,,,,,,,,,25.218287899999268,25.232044399999722,25.232044399999722,25.232044399999722,25.517742399999406,25.518003599999247,25.53404760000012,25.53404760000012,25.53404760000012,,,,25.81790599999931,25.53404760000012,25.53404760000012,25.53404760000012,,,,,,,,,,,,,,,,,,,,414239,001,2025-03-17_15h21.46.858,Estimulo_ICE,2024.2.4,60.04116422219055,2025-03-17 15h21.52.993145 -0300,
Estimulo_1,9,9,0,3.5,-3.5,3.5,-3.5,2.2,-2.2,-2.2,2.2,0,0,0,0,,,,,,,,,,,,,,,,,0,9,9,9,,,,,,,,,,,,,,,,,,,,,,,,,,,,,25.832001099999616,,,,,,,,,,,,,,25.818279000000075,25.832001099999616,25.832001099999616,25.832001099999616,26.117920899999262,26.11817599999995,26.132030400000076,26.132030400000076,26.132030400000076,26.431989799999428,26.431989799999428,26.431989799999428,26.41791849999936,26.132030400000076,26.132030400000076,26.132030400000076,,,,,,,,,,,,,,,,,,,,414239,001,2025-03-17_15h21.46.858,Estimulo_ICE,2024.2.4,60.04116422219055,2025-03-17 15h21.52.993145 -0300,
Estimulo_1,10,10,0,3.39999999999999,-3.39999999999999,3.39999999999999,-3.39999999999999,2.2,-2.2,-2.2,2.2,0,0,0,0,,,,,,,,,,,,,,,,,0,10,10,10,,,,,,,,,,,,,,,,,,,,,,,,,,,,,26.431989799999428,,,,,,,,,,,,,,26.418288500000017,26.431989799999428,26.431989799999428,26.431989799999428,26.71798149999995,26.71823669999958,26.731976699999905,26.731976699999905,26.731976699999905,27.032037399999354,27.032037399999354,27.032037399999354,27.017966099999285,26.731976699999905,26.731976699999905,26.731976699999905,,,,,,,,,,,,,,,,,,,,414239,001,2025-03-17_15h21.46.858,Estimulo_ICE,2024.2.4,60.04116422219055,2025-03-17 15h21.52.993145 -0300,
Estimulo_1,11,11,0,3.29999999999999,-3.29999999999999,3.29999999999999,-3.29999999999999,2.2,-2.2,-2.2,2.2,0,0,0,0,,,,,,,,,,,,,,,,,0,11,11,11,,,,,,,,,,,,,,,,,,,,,,,,,,,,,27.032037399999354,,,,,,,,,,,,,,27.018340499999795,27.032037399999354,27.032037399999354,27.032037399999354,27.317928999999822,27.318182799999704,27.332091799999944,27.332091799999944,27.332091799999944,27.632064399999763,27.632064399999763,27.632064399999763,27.6177861999995,27.332091799999944,27.332091799999944,27.332091799999944,,,,,,,,,,,,,,,,,,,,414239,001,2025-03-17_15h21.46.858,Estimulo_ICE,2024.2.4,60.04116422219055,2025-03-17 15h21.52.993145 -0300,
Estimulo_1,12,12,0,3.19999999999999,-3.19999999999999,3.19999999999999,-3.19999999999999,2.2,-2.2,-2.2,2.2,0,0,0,0,,,,,,,,,,,,,,,,,0,12,12,12,,,,,,,,,,,,,,,,,,,,,,,,,,,,,27.632064399999763,,,,,,,,,,,,,,27.618131399999584,27.632064399999763,27.632064399999763,27.632064399999763,27.91789079999944,27.918147800000042,27.931986799999322,27.931986799999322,27.931986799999322,28.23199889999978,28.23199889999978,28.23199889999978,28.218110899999374,27.931986799999322,27.931986799999322,27.931986799999322,,,,,,,,,,,,,,,,,,,,414239,001,2025-03-17_15h21.46.858,Estimulo_ICE,2024.2.4,60.04116422219055,2025-03-17 15h21.52.993145 -0300,
Estimulo_1,13,13,0,3.09999999999999,-3.09999999999999,3.09999999999999,-3.09999999999999,2.2,-2.2,-2.2,2.2,0,0,0,0,,,,,,,,,,,,,,,,,0,13,13,13,,,,,,,,,,,,,,,,,,,,,,,,,,,,,28.23199889999978,,,,,,,,,,,,,,28.21848299999965,28.23199889999978,28.23199889999978,28.23199889999978,28.51789539999936,28.518148099999962,28.531992100000025,28.531992100000025,28.531992100000025,28.83228819999931,28.83228819999931,28.83228819999931,28.81784229999994,28.531992100000025,28.531992100000025,28.531992100000025,,,,,,,,,,,,,,,,,,,,414239,001,2025-03-17_15h21.46.858,Estimulo_ICE,2024.2.4,60.04116422219055,2025-03-17 15h21.52.993145 -0300,
Estimulo_1,14,14,0,2.99999999999999,-2.99999999999999,2.99999999999999,-2.99999999999999,2.2,-2.2,-2.2,2.2,0,0,0,0,,,,,,,,,,,,,,,,,0,14,14,14,,,,,,,,,,,,,,,,,,,,,,,,,,,,,28.83228819999931,,,,,,,,,,,,,,28.818214399999306,28.83228819999931,28.83228819999931,28.83228819999931,29.117881000000125,29.11810389999937,29.132087399999364,29.132087399999364,29.132087399999364,29.431947299999592,29.431947299999592,29.431947299999592,29.417905599999358,29.132087399999364,29.132087399999364,29.132087399999364,,,,,,,,,,,,,,,,,,,,414239,001,2025-03-17_15h21.46.858,Estimulo_ICE,2024.2.4,60.04116422219055,2025-03-17 15h21.52.993145 -0300,
Estimulo_1,15,15,0,2.89999999999999,-2.89999999999999,2.89999999999999,-2.89999999999999,2.2,-2.2,-2.2,2.2,0,0,0,0,,,,,,,,,,,,,,,,,0,15,15,15,,,,,,,,,,,,,,,,,,,,,,,,,,,,,29.431947299999592,,,,,,,,,,,,,,29.418272500000057,29.431947299999592,29.431947299999592,29.431947299999592,29.71786769999926,29.71812090000003,29.731849099999636,29.731849099999636,29.731849099999636,30.0320542999998,30.0320542999998,30.0320542999998,30.017963899999813,29.731849099999636,29.731849099999636,29.731849099999636,,,,,,,,,,,,,,,,,,,,414239,001,2025-03-17_15h21.46.858,Estimulo_ICE,2024.2.4,60.04116422219055,2025-03-17 15h21.52.993145 -0300,
Estimulo_1,16,16,0,2.79999999999999,-2.79999999999999,2.79999999999999,-2.79999999999999,2.2,-2.2,-2.2,2.2,0,0,0,0,,,,,,,,,,,,,,,,,0,16,16,16,,,,,,,,,,,,,,,,,,,,,,,,,,,,,30.0320542999998,,,,,,,,,,,,,,30.01833329999954,30.0320542999998,30.0320542999998,30.0320542999998,30.317926099999568,30.31818199999998,30.332071099999666,30.332071099999666,30.332071099999666,30.632074000000102,30.632074000000102,30.632074000000102,30.61768789999951,30.332071099999666,30.332071099999666,30.332071099999666,,,,,,,,,,,,,,,,,,,,414239,001,2025-03-17_15h21.46.858,Estimulo_ICE,2024.2.4,60.04116422219055,2025-03-17 15h21.52.993145 -0300,
Estimulo_1,17,17,0,2.69999999999999,-2.69999999999999,2.69999999999999,-2.69999999999999,2.2,-2.2,-2.2,2.2,0,0,0,0,,,,,,,,,,,,,,,,,0,17,17,17,,,,,,,,,,,,,,,,,,,,,,,,,,,,,30.632074000000102,,,,,,,,,,,,,,30.61808680000013,30.632074000000102,30.632074000000102,30.632074000000102,30.91794519999985,30.918197500000133,30.931992699999682,30.931992699999682,30.931992699999682,31.23205759999928,31.23205759999928,31.23205759999928,31.218060599999262,30.931992699999682,30.931992699999682,30.931992699999682,,,,,,,,,,,,,,,,,,,,414239,001,2025-03-17_15h21.46.858,Estimulo_ICE,2024.2.4,60.04116422219055,2025-03-17 15h21.52.993145 -0300,
Estimulo_1,18,18,0,2.59999999999999,-2.59999999999999,2.59999999999999,-2.59999999999999,2.2,-2.2,-2.2,2.2,0,0,0,0,,,,,,,,,,,,,,,,,0,18,18,18,,,,,,,,,,,,,,,,,,,,,,,,,,,,,31.23205759999928,,,,,,,,,,,,,,31.218416400000024,31.23205759999928,31.23205759999928,31.23205759999928,31.517937799999345,31.518189499999608,31.53204679999999,31.53204679999999,31.53204679999999,31.831985599999825,31.831985599999825,31.831985599999825,31.81770249999954,31.53204679999999,31.53204679999999,31.53204679999999,,,,,,,,,,,,,,,,,,,,414239,001,2025-03-17_15h21.46.858,Estimulo_ICE,2024.2.4,60.04116422219055,2025-03-17 15h21.52.993145 -0300,
Estimulo_1,19,19,0,2.49999999999999,-2.49999999999999,2.49999999999999,-2.49999999999999,2.2,-2.2,-2.2,2.2,0,0,0,0,,,,,,,,,,,,,,,,,0,19,19,19,,,,,,,,,,,,,,,,,,,,,,,,,,,,,31.831985599999825,,,,,,,,,,,,,,31.81807260000005,31.831985599999825,31.831985599999825,31.831985599999825,32.11780159999944,32.1180461999993,32.1320455999994,32.1320455999994,32.1320455999994,32.43195779999951,32.43195779999951,32.43195779999951,32.417824799999835,32.1320455999994,32.1320455999994,32.1320455999994,,,,,,,,,,,,,,,,,,,,414239,001,2025-03-17_15h21.46.858,Estimulo_ICE,2024.2.4,60.04116422219055,2025-03-17 15h21.52.993145 -0300,
Estimulo_1,20,20,0,2.39999999999999,-2.39999999999999,2.39999999999999,-2.39999999999999,2.2,-2.2,-2.2,2.2,0,0,0,0,,,,,,,,,,,,,,,,,0,20,20,20,,,,,,,,,,,,,,,,,,,,,,,,,,,,,32.43195779999951,,,,,,,,,,,,,,32.418194399999265,32.43195779999951,32.43195779999951,32.43195779999951,32.71779359999982,32.718047999999726,32.73198460000003,32.73198460000003,32.73198460000003,33.032011799999964,33.032011799999964,33.032011799999964,33.017877499999486,32.73198460000003,32.73198460000003,32.73198460000003,,,,,,,,,,,,,,,,,,,,414239,001,2025-03-17_15h21.46.858,Estimulo_ICE,2024.2.4,60.04116422219055,2025-03-17 15h21.52.993145 -0300,
Estimulo_1,21,21,0,2.29999999999999,-2.29999999999999,2.29999999999999,-2.29999999999999,2.2,-2.2,-2.2,2.2,0,0,0,0,,,,,,,,,,,,,,,,,0,21,21,21,,,,,,,,,,,,,,,,,,,,,,,,,,,,,33.032011799999964,,,,,,,,,,,,,,33.01824579999993,33.032011799999964,33.032011799999964,33.032011799999964,33.317857600000025,33.31811029999972,33.33181809999951,33.33181809999951,33.33181809999951,33.63194399999975,33.63194399999975,33.63194399999975,33.61779619999925,33.33181809999951,33.33181809999951,33.33181809999951,,,,,,,,,,,,,,,,,,,,414239,001,2025-03-17_15h21.46.858,Estimulo_ICE,2024.2.4,60.04116422219055,2025-03-17 15h21.52.993145 -0300,
Estimulo_1,22,22,0,2.19999999999999,-2.19999999999999,2.19999999999999,-2.19999999999999,2.2,-2.2,-2.2,2.2,0,0,0,0,,,,,,,,,,,,,,,,,0,22,22,22,,,,,,,,,,,,,,,,,,,,,,,,,,,,,33.63194399999975,,,,,,,,,,,,,,33.61816790000012,33.63194399999975,33.63194399999975,33.63194399999975,33.91793460000008,33.918181600000025,33.93192909999925,33.93192909999925,33.93192909999925,34.231820799999696,34.231820799999696,34.231820799999696,34.21791690000009,33.93192909999925,33.93192909999925,33.93192909999925,,,,,,,,,,,,,,,,,,,,414239,001,2025-03-17_15h21.46.858,Estimulo_ICE,2024.2.4,60.04116422219055,2025-03-17 15h21.52.993145 -0300,
Estimulo_1,23,23,0,2.09999999999999,-2.09999999999999,2.09999999999999,-2.09999999999999,2.2,-2.2,-2.2,2.2,0,0,0,0,,,,,,,,,,,,,,,,,0,23,23,23,,,,,,,,,,,,,,,,,,,,,,,,,,,,,34.231820799999696,,,,,,,,,,,,,,34.2182714999999,34.231820799999696,34.231820799999696,34.231820799999696,34.51789980000012,34.51815279999937,34.532084999999825,34.532084999999825,34.532084999999825,34.832010699999955,34.832010699999955,34.832010699999955,34.81772879999971,34.532084999999825,34.532084999999825,34.532084999999825,,,,,,,,,,,,,,,,,,,,414239,001,2025-03-17_15h21.46.858,Estimulo_ICE,2024.2.4,60.04116422219055,2025-03-17 15h21.52.993145 -0300,
Estimulo_1,24,24,0,1.99999999999999,-1.99999999999999,1.99999999999999,-1.99999999999999,2.2,-2.2,-2.2,2.2,0,0,0,0,,,,,,,,,,,,,,,,,0,24,24,24,,,,,,,,,,,,,,,,,,,,,,,,,,,,,34.832010699999955,,,,,,,,,,,,,,34.81809829999929,34.832010699999955,34.832010699999955,34.832010699999955,35.11784939999961,35.11810280000009,35.13179709999986,35.13179709999986,35.13179709999986,35.432016799999474,35.432016799999474,35.432016799999474,35.41770439999982,35.13179709999986,35.13179709999986,35.13179709999986,,,,,,,,,,,,,,,,,,,,414239,001,2025-03-17_15h21.46.858,Estimulo_ICE,2024.2.4,60.04116422219055,2025-03-17 15h21.52.993145 -0300,
Estimulo_1,25,25,0,1.89999999999999,-1.89999999999999,1.89999999999999,-1.89999999999999,2.2,-2.2,-2.2,2.2,0,0,0,0,,,,,,,,,,,,,,,,,0,25,25,25,,,,,,,,,,,,,,,,,,,,,,,,,,,,,35.432016799999474,,,,,,,,,,,,,,35.418074199999865,35.432016799999474,35.432016799999474,35.432016799999474,35.71787769999992,35.71812090000003,35.731971399999566,35.731971399999566,35.731971399999566,36.03193449999981,36.03193449999981,36.03193449999981,36.01773739999953,35.731971399999566,35.731971399999566,35.731971399999566,,,,,,,,,,,,,,,,,,,,414239,001,2025-03-17_15h21.46.858,Estimulo_ICE,2024.2.4,60.04116422219055,2025-03-17 15h21.52.993145 -0300,
Estimulo_1,26,26,0,1.79999999999999,-1.79999999999999,1.79999999999999,-1.79999999999999,2.2,-2.2,-2.2,2.2,0,0,0,0,,,,,,,,,,,,,,,,,0,26,26,26,,,,,,,,,,,,,,,,,,,,,,,,,,,,,36.03193449999981,,,,,,,,,,,,,,36.01810509999996,36.03193449999981,36.03193449999981,36.03193449999981,36.317873699999836,36.31812879999961,36.331841899999745,36.331841899999745,36.331841899999745,36.63188209999953,36.63188209999953,36.63188209999953,36.617799199999354,36.331841899999745,36.331841899999745,36.331841899999745,,,,,,,,,,,,,,,,,,,,414239,001,2025-03-17_15h21.46.858,Estimulo_ICE,2024.2.4,60.04116422219055,2025-03-17 15h21.52.993145 -0300,
Estimulo_1,27,27,0,1.69999999999999,-1.69999999999999,1.69999999999999,-1.69999999999999,2.2,-2.2,-2.2,2.2,0,0,0,0,,,,,,,,,,,,,,,,,0,27,27,27,,,,,,,,,,,,,,,,,,,,,,,,,,,,,36.63188209999953,,,,,,,,,,,,,,36.61812649999956,36.63188209999953,36.63188209999953,36.63188209999953,36.91770989999986,36.91795439999987,36.93194499999936,36.93194499999936,36.93194499999936,37.23192349999954,37.23192349999954,37.23192349999954,37.21792759999971,36.93194499999936,36.93194499999936,36.93194499999936,,,,,,,,,,,,,,,,,,,,414239,001,2025-03-17_15h21.46.858,Estimulo_ICE,2024.2.4,60.04116422219055,2025-03-17 15h21.52.993145 -0300,
Estimulo_1,28,28,0,1.59999999999999,-1.59999999999999,1.59999999999999,-1.59999999999999,2.2,-2.2,-2.2,2.2,0,0,0,0,,,,,,,,,,,,,,,,,0,28,28,28,,,,,,,,,,,,,,,,,,,,,,,,,,,,,37.23192349999954,,,,,,,,,,,,,,37.21829589999925,37.23192349999954,37.23192349999954,37.23192349999954,37.51784640000005,37.51808970000002,37.5318656999998,37.5318656999998,37.5318656999998,37.83194109999931,37.83194109999931,37.83194109999931,37.817649799999344,37.5318656999998,37.5318656999998,37.5318656999998,,,,,,,,,,,,,,,,,,,,414239,001,2025-03-17_15h21.46.858,Estimulo_ICE,2024.2.4,60.04116422219055,2025-03-17 15h21.52.993145 -0300,
Estimulo_1,29,29,0,1.49999999999999,-1.49999999999998,1.49999999999999,-1.49999999999998,2.2,-2.2,-2.2,2.2,0,0,0,0,,,,,,,,,,,,,,,,,0,29,29,29,,,,,,,,,,,,,,,,,,,,,,,,,,,,,37.83194109999931,,,,,,,,,,,,,,37.81801369999994,37.83194109999931,37.83194109999931,37.83194109999931,38.11785739999959,38.118110699999306,38.131964700000026,38.131964700000026,38.131964700000026,38.43177289999949,38.43177289999949,38.43177289999949,38.418005300000004,38.131964700000026,38.131964700000026,38.131964700000026,,,,,,,,,,,,,,,,,,,,414239,001,2025-03-17_15h21.46.858,Estimulo_ICE,2024.2.4,60.04116422219055,2025-03-17 15h21.52.993145 -0300,
Estimulo_1,30,30,0,1.39999999999999,-1.39999999999998,1.39999999999999,-1.39999999999998,2.2,-2.2,-2.2,2.2,0,0,0,0,,,,,,,,,,,,,,,,,0,30,30,30,,,,,,,,,,,,,,,,,,,,,,,,,,,,,38.43177289999949,,,,,,,,,,,,,,38.41836299999977,38.43177289999949,38.43177289999949,38.43177289999949,38.717857900000126,38.71811069999967,38.73188299999947,38.73188299999947,38.73188299999947,39.03172089999953,39.03172089999953,39.03172089999953,39.01789749999989,38.73188299999947,38.73188299999947,38.73188299999947,,,,,,,,,,,,,,,,,,,,414239,001,2025-03-17_15h21.46.858,Estimulo_ICE,2024.2.4,60.04116422219055,2025-03-17 15h21.52.993145 -0300,
Estimulo_1,31,31,0,1.29999999999999,-1.29999999999998,1.29999999999999,-1.29999999999998,2.2,-2.2,-2.2,2.2,0,0,0,0,,,,,,,,,,,,,,,,,0,31,31,31,,,,,,,,,,,,,,,,,,,,,,,,,,,,,39.03172089999953,,,,,,,,,,,,,,39.01827090000006,39.03172089999953,39.03172089999953,39.03172089999953,39.318574799999624,39.31880000000001,39.33222729999943,39.33222729999943,39.33222729999943,39.63176079999994,39.63176079999994,39.63176079999994,39.617902299999514,39.33222729999943,39.33222729999943,39.33222729999943,,,,,,,,,,,,,,,,,,,,414239,001,2025-03-17_15h21.46.858,Estimulo_ICE,2024.2.4,60.04116422219055,2025-03-17 15h21.52.993145 -0300,
Estimulo_1,32,32,0,1.19999999999999,-1.19999999999998,1.19999999999999,-1.19999999999998,2.2,-2.2,-2.2,2.2,0,0,0,0,,,,,,,,,,,,,,,,,0,32,32,32,,,,,,,,,,,,,,,,,,,,,,,,,,,,,39.63176079999994,,,,,,,,,,,,,,39.61827469999935,39.63176079999994,39.63176079999994,39.63176079999994,39.917828599999666,39.91808369999944,39.931928199999675,39.931928199999675,39.931928199999675,40.23174359999939,40.23174359999939,40.23174359999939,40.21783039999991,39.931928199999675,39.931928199999675,39.931928199999675,,,,,,,,,,,,,,,,,,,,414239,001,2025-03-17_15h21.46.858,Estimulo_ICE,2024.2.4,60.04116422219055,2025-03-17 15h21.52.993145 -0300,
Estimulo_1,33,33,0,1.09999999999999,-1.09999999999998,1.09999999999999,-1.09999999999998,2.2,-2.2,-2.2,2.2,0,0,0,0,,,,,,,,,,,,,,,,,0,33,33,33,,,,,,,,,,,,,,,,,,,,,,,,,,,,,40.23174359999939,,,,,,,,,,,,,,40.2182015999997,40.23174359999939,40.23174359999939,40.23174359999939,40.51781320000009,40.51806749999923,40.531786999999895,40.531786999999895,40.531786999999895,40.914785399999346,40.914785399999346,40.914785399999346,40.81789109999954,40.531786999999895,40.531786999999895,40.531786999999895,,,,,,,,,,,,,,,,,,,,414239,001,2025-03-17_15h21.46.858,Estimulo_ICE,2024.2.4,60.04116422219055,2025-03-17 15h21.52.993145 -0300,
Estimulo_1,0,0,0,,,,,,,,,0,0,0,0,,,,,,,,,,,,,,,,,,,,,,,,,,,,,,,,,,,,,,,,,,,,,,,,,,,,,,,,,,,,,,,,,,,,,,,,,,,,,,,40.89626799999951,40.914785399999346,41.33397590000004,,,,,,,,,,,,,,,,,414239,001,2025-03-17_15h21.46.858,Estimulo_ICE,2024.2.4,60.04116422219055,2025-03-17 15h21.52.993145 -0300,
Estimulo_9,0,0,0,4.4,-4.4,4.4,-4.4,2.2,-2.2,-2.2,2.2,0,1,1,1,,,,,,,,,,,,,,,,,,,,,,,,,,,,,,,,,0,0,0,0,,,,,,,,,,,,,41.4480810999994,,41.334081799999694,41.334392699999626,,,,,,,,,,,,,,,,,,,,,,,,,,,,,,41.429833499999404,41.4480810999994,41.4480810999994,41.4480810999994,41.650667999999314,41.65089159999934,41.66536999999971,41.66536999999971,41.66536999999971,41.950808999999936,,,,,,,414239,001,2025-03-17_15h21.46.858,Estimulo_ICE,2024.2.4,60.04116422219055,2025-03-17 15h21.52.993145 -0300,
Estimulo_9,1,1,0,4.3,-4.3,4.3,-4.3,2.2,-2.2,-2.2,2.2,0,1,1,1,,,,,,,,,,,,,,,,,,,,,,,,,,,,,,,,,0,1,1,1,,,,,,,,,,,,,41.965126600000076,,,,,,,,,,,,,,,,,,,,,,,,,,,,,,,,,41.951168399999915,41.965126600000076,41.965126600000076,41.965126600000076,42.250824299999294,42.25106400000004,42.2652178999997,42.2652178999997,42.2652178999997,42.55065639999975,,,,,,,414239,001,2025-03-17_15h21.46.858,Estimulo_ICE,2024.2.4,60.04116422219055,2025-03-17 15h21.52.993145 -0300,
Estimulo_9,2,2,0,4.2,-4.2,4.2,-4.2,2.2,-2.2,-2.2,2.2,0,1,1,1,,,,,,,,,,,,,,,,,,,,,,,,,,,,,,,,,0,2,2,2,,,,,,,,,,,,,42.565222499999436,,,,,,,,,,,,,,,,,,,,,,,,,,,,,,,,,42.55101729999933,42.565222499999436,42.565222499999436,42.565222499999436,42.850940499999524,42.851178799999616,42.86510689999977,42.86510689999977,42.86510689999977,43.150624199999584,,,,,,,414239,001,2025-03-17_15h21.46.858,Estimulo_ICE,2024.2.4,60.04116422219055,2025-03-17 15h21.52.993145 -0300,
Estimulo_9,3,3,0,4.1,-4.1,4.1,-4.1,2.2,-2.2,-2.2,2.2,0,1,1,1,,,,,,,,,,,,,,,,,,,,,,,,,,,,,,,,,0,3,3,3,,,,,,,,,,,,,43.16526410000006,,,,,,,,,,,,,,,,,,,,,,,,,,,,,,,,,43.15098390000003,43.16526410000006,43.16526410000006,43.16526410000006,43.45058989999961,43.45083160000013,43.465306999999484,43.465306999999484,43.465306999999484,43.75075019999986,,,,,,,414239,001,2025-03-17_15h21.46.858,Estimulo_ICE,2024.2.4,60.04116422219055,2025-03-17 15h21.52.993145 -0300,
Estimulo_9,4,4,0,4,-4,4,-4,2.2,-2.2,-2.2,2.2,0,1,1,1,,,,,,,,,,,,,,,,,,,,,,,,,,,,,,,,,0,4,4,4,,,,,,,,,,,,,43.76522299999942,,,,,,,,,,,,,,,,,,,,,,,,,,,,,,,,,43.75110399999994,43.76522299999942,43.76522299999942,43.76522299999942,44.05082929999935,44.05106840000008,44.0653142000001,44.0653142000001,44.0653142000001,44.350799099999676,,,,,,,414239,001,2025-03-17_15h21.46.858,Estimulo_ICE,2024.2.4,60.04116422219055,2025-03-17 15h21.52.993145 -0300,
Estimulo_9,5,5,0,3.9,-3.9,3.9,-3.9,2.2,-2.2,-2.2,2.2,0,1,1,1,,,,,,,,,,,,,,,,,,,,,,,,,,,,,,,,,0,5,5,5,,,,,,,,,,,,,44.36518249999972,,,,,,,,,,,,,,,,,,,,,,,,,,,,,,,,,44.3511555999994,44.36518249999972,44.36518249999972,44.36518249999972,44.65074589999949,44.65098559999933,44.665222300000096,44.665222300000096,44.665222300000096,44.950756700000056,,,,,,,414239,001,2025-03-17_15h21.46.858,Estimulo_ICE,2024.2.4,60.04116422219055,2025-03-17 15h21.52.993145 -0300,
Estimulo_9,6,6,0,3.8,-3.8,3.8,-3.8,2.2,-2.2,-2.2,2.2,0,1,1,1,,,,,,,,,,,,,,,,,,,,,,,,,,,,,,,,,0,6,6,6,,,,,,,,,,,,,44.96520520000013,,,,,,,,,,,,,,,,,,,,,,,,,,,,,,,,,44.9511093000001,44.96520520000013,44.96520520000013,44.96520520000013,45.25077489999967,45.25101730000006,45.26535469999999,45.26535469999999,45.26535469999999,45.550894699999844,,,,,,,414239,001,2025-03-17_15h21.46.858,Estimulo_ICE,2024.2.4,60.04116422219055,2025-03-17 15h21.52.993145 -0300,
Estimulo_9,7,7,0,3.7,-3.7,3.7,-3.7,2.2,-2.2,-2.2,2.2,0,1,1,1,,,,,,,,,,,,,,,,,,,,,,,,,,,,,,,,,0,7,7,7,,,,,,,,,,,,,45.56672569999955,,,,,,,,,,,,,,,,,,,,,,,,,,,,,,,,,45.55126239999936,45.56672569999955,45.56672569999955,45.56672569999955,45.85080529999959,45.85104509999928,45.86527169999954,45.86527169999954,45.86527169999954,46.1507802999995,,,,,,,414239,001,2025-03-17_15h21.46.858,Estimulo_ICE,2024.2.4,60.04116422219055,2025-03-17 15h21.52.993145 -0300,
Estimulo_9,8,8,0,3.6,-3.6,3.6,-3.6,2.2,-2.2,-2.2,2.2,0,1,1,1,,,,,,,,,,,,,,,,,,,,,,,,,,,,,,,,,0,8,8,8,,,,,,,,,,,,,46.1650681000001,,,,,,,,,,,,,,,,,,,,,,,,,,,,,,,,,46.151138599999285,46.1650681000001,46.1650681000001,46.1650681000001,46.450808499999766,46.451050899999245,46.46531409999989,46.46531409999989,46.46531409999989,46.750699299999724,,,,,,,414239,001,2025-03-17_15h21.46.858,Estimulo_ICE,2024.2.4,60.04116422219055,2025-03-17 15h21.52.993145 -0300,
Estimulo_9,9,9,0,3.5,-3.5,3.5,-3.5,2.2,-2.2,-2.2,2.2,0,1,1,1,,,,,,,,,,,,,,,,,,,,,,,,,,,,,,,,,0,9,9,9,,,,,,,,,,,,,46.76524329999938,,,,,,,,,,,,,,,,,,,,,,,,,,,,,,,,,46.75105549999989,46.76524329999938,46.76524329999938,46.76524329999938,47.05070329999944,47.05094299999928,47.065111899999465,47.065111899999465,47.065111899999465,47.350734399999965,,,,,,,414239,001,2025-03-17_15h21.46.858,Estimulo_ICE,2024.2.4,60.04116422219055,2025-03-17 15h21.52.993145 -0300,
Estimulo_9,10,10,0,3.39999999999999,-3.39999999999999,3.39999999999999,-3.39999999999999,2.2,-2.2,-2.2,2.2,0,1,1,1,,,,,,,,,,,,,,,,,,,,,,,,,,,,,,,,,0,10,10,10,,,,,,,,,,,,,47.3651804000001,,,,,,,,,,,,,,,,,,,,,,,,,,,,,,,,,47.35109130000001,47.3651804000001,47.3651804000001,47.3651804000001,47.65065499999946,47.65088519999972,47.66521719999946,47.66521719999946,47.66521719999946,47.95075569999972,,,,,,,414239,001,2025-03-17_15h21.46.858,Estimulo_ICE,2024.2.4,60.04116422219055,2025-03-17 15h21.52.993145 -0300,
Estimulo_9,11,11,0,3.29999999999999,-3.29999999999999,3.29999999999999,-3.29999999999999,2.2,-2.2,-2.2,2.2,0,1,1,1,,,,,,,,,,,,,,,,,,,,,,,,,,,,,,,,,0,11,11,11,,,,,,,,,,,,,47.96520269999928,,,,,,,,,,,,,,,,,,,,,,,,,,,,,,,,,47.951111800000035,47.96520269999928,47.96520269999928,47.96520269999928,48.25075789999937,48.25099890000001,48.26523619999989,48.26523619999989,48.26523619999989,48.550528400000076,,,,,,,414239,001,2025-03-17_15h21.46.858,Estimulo_ICE,2024.2.4,60.04116422219055,2025-03-17 15h21.52.993145 -0300,
Estimulo_9,12,12,0,3.19999999999999,-3.19999999999999,3.19999999999999,-3.19999999999999,2.2,-2.2,-2.2,2.2,0,1,1,1,,,,,,,,,,,,,,,,,,,,,,,,,,,,,,,,,0,12,12,12,,,,,,,,,,,,,48.565144399999554,,,,,,,,,,,,,,,,,,,,,,,,,,,,,,,,,48.55088100000012,48.565144399999554,48.565144399999554,48.565144399999554,48.85078179999982,48.85102349999943,48.86527649999971,48.86527649999971,48.86527649999971,49.15073839999968,,,,,,,414239,001,2025-03-17_15h21.46.858,Estimulo_ICE,2024.2.4,60.04116422219055,2025-03-17 15h21.52.993145 -0300,
Estimulo_9,13,13,0,3.09999999999999,-3.09999999999999,3.09999999999999,-3.09999999999999,2.2,-2.2,-2.2,2.2,0,1,1,1,,,,,,,,,,,,,,,,,,,,,,,,,,,,,,,,,0,13,13,13,,,,,,,,,,,,,49.16499919999933,,,,,,,,,,,,,,,,,,,,,,,,,,,,,,,,,49.15109279999979,49.16499919999933,49.16499919999933,49.16499919999933,49.450706999999966,49.450943499999994,49.46514059999936,49.46514059999936,49.46514059999936,49.75071519999983,,,,,,,414239,001,2025-03-17_15h21.46.858,Estimulo_ICE,2024.2.4,60.04116422219055,2025-03-17 15h21.52.993145 -0300,
Estimulo_9,14,14,0,2.99999999999999,-2.99999999999999,2.99999999999999,-2.99999999999999,2.2,-2.2,-2.2,2.2,0,1,1,1,,,,,,,,,,,,,,,,,,,,,,,,,,,,,,,,,0,14,14,14,,,,,,,,,,,,,49.76507159999983,,,,,,,,,,,,,,,,,,,,,,,,,,,,,,,,,49.75109269999939,49.76507159999983,49.76507159999983,49.76507159999983,50.05073579999953,50.05097519999981,50.06494440000006,50.06494440000006,50.06494440000006,50.35137759999998,,,,,,,414239,001,2025-03-17_15h21.46.858,Estimulo_ICE,2024.2.4,60.04116422219055,2025-03-17 15h21.52.993145 -0300,
Estimulo_9,15,15,0,2.89999999999999,-2.89999999999999,2.89999999999999,-2.89999999999999,2.2,-2.2,-2.2,2.2,0,1,1,1,,,,,,,,,,,,,,,,,,,,,,,,,,,,,,,,,0,15,15,15,,,,,,,,,,,,,50.36529689999952,,,,,,,,,,,,,,,,,,,,,,,,,,,,,,,,,50.351796199999626,50.36529689999952,50.36529689999952,50.36529689999952,50.63455949999934,50.63484399999925,50.648607099999936,50.648607099999936,50.648607099999936,50.934490699999515,,,,,,,414239,001,2025-03-17_15h21.46.858,Estimulo_ICE,2024.2.4,60.04116422219055,2025-03-17 15h21.52.993145 -0300,
Estimulo_9,16,16,0,2.79999999999999,-2.79999999999999,2.79999999999999,-2.79999999999999,2.2,-2.2,-2.2,2.2,0,1,1,1,,,,,,,,,,,,,,,,,,,,,,,,,,,,,,,,,0,16,16,16,,,,,,,,,,,,,50.94861089999995,,,,,,,,,,,,,,,,,,,,,,,,,,,,,,,,,50.93491059999997,50.94861089999995,50.94861089999995,50.94861089999995,51.23484779999944,51.23515189999944,51.24895310000011,51.24895310000011,51.24895310000011,51.53461189999962,51.24895310000011,51.24895310000011,51.24895310000011,,,,414239,001,2025-03-17_15h21.46.858,Estimulo_ICE,2024.2.4,60.04116422219055,2025-03-17 15h21.52.993145 -0300,
Estimulo_9,17,17,0,2.69999999999999,-2.69999999999999,2.69999999999999,-2.69999999999999,2.2,-2.2,-2.2,2.2,0,1,1,1,,,,,,,,,,,,,,,,,,,,,,,,,,,,,,,,,0,17,17,17,,,,,,,,,,,,,51.54858869999953,,,,,,,,,,,,,,,,,,,,,,,,,,,,,,,,,51.53502979999939,51.54858869999953,51.54858869999953,51.54858869999953,51.83449560000008,51.83477859999948,51.848721499999556,51.848721499999556,51.848721499999556,52.13458939999964,,,,,,,414239,001,2025-03-17_15h21.46.858,Estimulo_ICE,2024.2.4,60.04116422219055,2025-03-17 15h21.52.993145 -0300,
Estimulo_9,18,18,0,2.59999999999999,-2.59999999999999,2.59999999999999,-2.59999999999999,2.2,-2.2,-2.2,2.2,0,1,1,1,,,,,,,,,,,,,,,,,,,,,,,,,,,,,,,,,0,18,18,18,,,,,,,,,,,,,52.148567499999444,,,,,,,,,,,,,,,,,,,,,,,,,,,,,,,,,52.13500659999954,52.148567499999444,52.148567499999444,52.148567499999444,52.434571299999334,52.43485779999992,52.448552500000005,52.448552500000005,52.448552500000005,52.73450460000004,,,,,,,414239,001,2025-03-17_15h21.46.858,Estimulo_ICE,2024.2.4,60.04116422219055,2025-03-17 15h21.52.993145 -0300,
Estimulo_9,19,19,0,2.49999999999999,-2.49999999999999,2.49999999999999,-2.49999999999999,2.2,-2.2,-2.2,2.2,0,1,1,1,,,,,,,,,,,,,,,,,,,,,,,,,,,,,,,,,0,19,19,19,,,,,,,,,,,,,52.74854509999932,,,,,,,,,,,,,,,,,,,,,,,,,,,,,,,,,52.73492259999966,52.74854509999932,52.74854509999932,52.74854509999932,53.034523599999375,53.03480809999928,53.04863709999972,53.04863709999972,53.04863709999972,53.334476600000016,,,,,,,414239,001,2025-03-17_15h21.46.858,Estimulo_ICE,2024.2.4,60.04116422219055,2025-03-17 15h21.52.993145 -0300,
Estimulo_9,20,20,0,2.39999999999999,-2.39999999999999,2.39999999999999,-2.39999999999999,2.2,-2.2,-2.2,2.2,0,1,1,1,,,,,,,,,,,,,,,,,,,,,,,,,,,,,,,,,0,20,20,20,,,,,,,,,,,,,53.348624199999904,,,,,,,,,,,,,,,,,,,,,,,,,,,,,,,,,53.334893599999305,53.348624199999904,53.348624199999904,53.348624199999904,53.63445729999967,53.634739199999785,53.64857649999976,53.64857649999976,53.64857649999976,53.934768399999484,,,,53.9486366000001,53.9486366000001,53.9486366000001,414239,001,2025-03-17_15h21.46.858,Estimulo_ICE,2024.2.4,60.04116422219055,2025-03-17 15h21.52.993145 -0300,
Estimulo_9,21,21,0,2.29999999999999,-2.29999999999999,2.29999999999999,-2.29999999999999,2.2,-2.2,-2.2,2.2,0,1,1,1,,,,,,,,,,,,,,,,,,,,,,,,,,,,,,,,,0,21,21,21,,,,,,,,,,,,,53.9486366000001,,,,,,,,,,,,,,,,,,,,,,,,,,,,,,,,,53.93521239999973,53.9486366000001,53.9486366000001,53.9486366000001,54.2347007999997,54.23493669999971,54.248430099999496,54.248430099999496,54.248430099999496,54.5343127999995,54.248430099999496,54.248430099999496,54.248430099999496,54.54848859999947,54.54848859999947,54.54848859999947,414239,001,2025-03-17_15h21.46.858,Estimulo_ICE,2024.2.4,60.04116422219055,2025-03-17 15h21.52.993145 -0300,
,22,22,0,2.19999999999999,-2.19999999999999,2.19999999999999,-2.19999999999999,2.2,-2.2,-2.2,2.2,,,,,,,,,,,,,,,,,,,,,,,,,,,,,,,,,,,,,0,22,22,22,,,,,,,,,,,,,54.54848859999947,,,,,,,,,,,,,,,,,,,,,,,,,,,,,,,,,54.53469150000001,54.54848859999947,54.54848859999947,54.54848859999947,54.834363899999516,54.83462269999927,54.84840359999998,54.84840359999998,54.84840359999998,,54.84840359999998,54.84840359999998,54.84840359999998,,,,,,,,,,,
