LoopName,thisN,thisTrialN,thisRepN,px1,px2,px3,px4,py1,py2,py3,py4,key_resp_6.keys,key_resp_7.keys,key_resp_4.keys,key_resp_5.keys,MainLoop.thisRepN,MainLoop.thisTrialN,MainLoop.thisN,MainLoop.thisIndex,loop_1.thisRepN,loop_1.thisTrialN,loop_1.thisN,loop_1.thisIndex,loop_2.thisRepN,loop_2.thisTrialN,loop_2.thisN,loop_2.thisIndex,loop_3.thisRepN,loop_3.thisTrialN,loop_3.thisN,loop_3.thisIndex,loop_4.thisRepN,loop_4.thisTrialN,loop_4.thisN,loop_4.thisIndex,loop_5.thisRepN,loop_5.thisTrialN,loop_5.thisN,loop_5.thisIndex,loop_6.thisRepN,loop_6.thisTrialN,loop_6.thisN,loop_6.thisIndex,loop_7.thisRepN,loop_7.thisTrialN,loop_7.thisN,loop_7.thisIndex,loop_8.thisRepN,loop_8.thisTrialN,loop_8.thisN,loop_8.thisIndex,loop_9.thisRepN,loop_9.thisTrialN,loop_9.thisN,loop_9.thisIndex,loop_10.thisRepN,loop_10.thisTrialN,loop_10.thisN,loop_10.thisIndex,loop_11.thisRepN,loop_11.thisTrialN,loop_11.thisN,loop_11.thisIndex,loop_12.thisRepN,loop_12.thisTrialN,loop_12.thisN,loop_12.thisIndex,thisRow.t,notes,codigo.started,codigo.stopped,trial_5.started,image_9.started,polygon_6.started,image_10.started,key_resp_6.started,trial_5.stopped,loop_9.key_resp_6.keys,trial_6.started,image_11.started,image_12.started,polygon_7.started,key_resp_7.started,trial_6.stopped,loop_9.key_resp_7.keys,_intertrial_interval_.started,polygon_5.started,_intertrial_interval_.stopped,trial_3.started,image_5.started,image_6.started,polygon_3.started,key_resp_4.started,trial_3.stopped,loop_6.key_resp_4.keys,trial_4.started,image_7.started,image_8.started,polygon_4.started,key_resp_5.started,image_7.stopped,image_8.stopped,polygon_4.stopped,key_resp_5.stopped,trial_4.stopped,loop_6.key_resp_5.keys,image_5.stopped,image_6.stopped,polygon_3.stopped,key_resp_4.stopped,participant,session,date,expName,psychopyVersion,frameRate,expStart,
Estimulo_9,0,0,0,4.4,-4.4,4.4,-4.4,2.2,-2.2,-2.2,2.2,None,None,,,0,0,0,8,,,,,,,,,,,,,,,,,,,,,,,,,,,,,,,,,0,0,0,0,,,,,,,,,,,,,0.2005802999997286,,0.024265699999887147,0.02463339999985692,0.18072049999955198,0.2005802999997286,0.2005802999997286,0.2005802999997286,0.2005802999997286,0.3350949999999102,None,0.33531889999994746,0.3495887999997649,0.3495887999997649,0.3495887999997649,0.3495887999997649,0.6349284999996598,None,,,,,,,,,,,,,,,,,,,,,,,,,,434710,001,2025-03-24_15h06.27.221,Estimulo_ICE,2024.2.4,60.08640424926991,2025-03-24 15h06.32.734484 -0300,
Estimulo_9,1,1,0,4.3,-4.3,4.3,-4.3,2.2,-2.2,-2.2,2.2,None,None,,,0,0,0,8,,,,,,,,,,,,,,,,,,,,,,,,,,,,,,,,,0,1,1,1,,,,,,,,,,,,,0.6492728999996871,,,,0.6352641999997104,0.6492728999996871,0.6492728999996871,0.6492728999996871,0.6492728999996871,0.9353991999996651,None,0.9356700999996974,0.9495070999996642,0.9495070999996642,0.9495070999996642,0.9495070999996642,1.2349379999996017,None,,,,,,,,,,,,,,,,,,,,,,,,,,434710,001,2025-03-24_15h06.27.221,Estimulo_ICE,2024.2.4,60.08640424926991,2025-03-24 15h06.32.734484 -0300,
Estimulo_9,2,2,0,4.2,-4.2,4.2,-4.2,2.2,-2.2,-2.2,2.2,None,None,,,0,0,0,8,,,,,,,,,,,,,,,,,,,,,,,,,,,,,,,,,0,2,2,2,,,,,,,,,,,,,1.2497794999999314,,,,1.2352810999996109,1.2497794999999314,1.2497794999999314,1.2497794999999314,1.2497794999999314,1.5351759999998649,None,1.535461199999645,1.5499959999997373,1.5499959999997373,1.5499959999997373,1.5499959999997373,1.8379195999996227,None,,,,,,,,,,,,,,,,,,,,,,,,,,434710,001,2025-03-24_15h06.27.221,Estimulo_ICE,2024.2.4,60.08640424926991,2025-03-24 15h06.32.734484 -0300,
Estimulo_9,3,3,0,4.1,-4.1,4.1,-4.1,2.2,-2.2,-2.2,2.2,None,None,,,0,0,0,8,,,,,,,,,,,,,,,,,,,,,,,,,,,,,,,,,0,3,3,3,,,,,,,,,,,,,1.850708399999803,,,,1.8382512999996834,1.850708399999803,1.850708399999803,1.850708399999803,1.850708399999803,2.1356856999996126,None,2.135924199999863,2.1499677999995583,2.1499677999995583,2.1499677999995583,2.1499677999995583,2.435498099999677,None,,,,,,,,,,,,,,,,,,,,,,,,,,434710,001,2025-03-24_15h06.27.221,Estimulo_ICE,2024.2.4,60.08640424926991,2025-03-24 15h06.32.734484 -0300,
Estimulo_9,4,4,0,4,-4,4,-4,2.2,-2.2,-2.2,2.2,None,None,,,0,0,0,8,,,,,,,,,,,,,,,,,,,,,,,,,,,,,,,,,0,4,4,4,,,,,,,,,,,,,2.449762499999906,,,,2.435832599999685,2.449762499999906,2.449762499999906,2.449762499999906,2.449762499999906,2.735640799999601,None,2.7358738999996604,2.7498726999997416,2.7498726999997416,2.7498726999997416,2.7498726999997416,3.035735299999942,None,,,,,,,,,,,,,,,,,,,,,,,,,,434710,001,2025-03-24_15h06.27.221,Estimulo_ICE,2024.2.4,60.08640424926991,2025-03-24 15h06.32.734484 -0300,
Estimulo_9,5,5,0,3.9,-3.9,3.9,-3.9,2.2,-2.2,-2.2,2.2,None,None,,,0,0,0,8,,,,,,,,,,,,,,,,,,,,,,,,,,,,,,,,,0,5,5,5,,,,,,,,,,,,,3.050228899999638,,,,3.0361458999996103,3.050228899999638,3.050228899999638,3.050228899999638,3.050228899999638,3.335125699999935,None,3.335361599999942,3.349546499999633,3.349546499999633,3.349546499999633,3.349546499999633,3.6370474999998805,None,,,,,,,,,,,,,,,,,,,,,,,,,,434710,001,2025-03-24_15h06.27.221,Estimulo_ICE,2024.2.4,60.08640424926991,2025-03-24 15h06.32.734484 -0300,
Estimulo_9,6,6,0,3.8,-3.8,3.8,-3.8,2.2,-2.2,-2.2,2.2,None,None,,,0,0,0,8,,,,,,,,,,,,,,,,,,,,,,,,,,,,,,,,,0,6,6,6,,,,,,,,,,,,,3.652307599999858,,,,3.637478899999678,3.652307599999858,3.652307599999858,3.652307599999858,3.652307599999858,3.93487339999956,None,3.9351074999999582,3.9488624999999047,3.9488624999999047,3.9488624999999047,3.9488624999999047,4.234567199999674,None,,,,,,,,,,,,,,,,,,,,,,,,,,434710,001,2025-03-24_15h06.27.221,Estimulo_ICE,2024.2.4,60.08640424926991,2025-03-24 15h06.32.734484 -0300,
Estimulo_9,7,7,0,3.7,-3.7,3.7,-3.7,2.2,-2.2,-2.2,2.2,None,None,,,0,0,0,8,,,,,,,,,,,,,,,,,,,,,,,,,,,,,,,,,0,7,7,7,,,,,,,,,,,,,4.248976999999741,,,,4.2349270999998225,4.248976999999741,4.248976999999741,4.248976999999741,4.248976999999741,4.535521599999811,None,4.535823799999889,4.548986899999818,4.548986899999818,4.548986899999818,4.548986899999818,4.834862199999861,None,,,,,,,,,,,,,,,,,,,,,,,,,,434710,001,2025-03-24_15h06.27.221,Estimulo_ICE,2024.2.4,60.08640424926991,2025-03-24 15h06.32.734484 -0300,
Estimulo_9,8,8,0,3.6,-3.6,3.6,-3.6,2.2,-2.2,-2.2,2.2,None,None,,,0,0,0,8,,,,,,,,,,,,,,,,,,,,,,,,,,,,,,,,,0,8,8,8,,,,,,,,,,,,,4.849373899999591,,,,4.835191999999552,4.849373899999591,4.849373899999591,4.849373899999591,4.849373899999591,5.135084699999879,None,5.135366299999987,5.149202499999774,5.149202499999774,5.149202499999774,5.149202499999774,5.434529099999963,None,,,,,,,,,,,,,,,,,,,,,,,,,,434710,001,2025-03-24_15h06.27.221,Estimulo_ICE,2024.2.4,60.08640424926991,2025-03-24 15h06.32.734484 -0300,
Estimulo_9,9,9,0,3.5,-3.5,3.5,-3.5,2.2,-2.2,-2.2,2.2,None,None,,,0,0,0,8,,,,,,,,,,,,,,,,,,,,,,,,,,,,,,,,,0,9,9,9,,,,,,,,,,,,,5.449127199999566,,,,5.434865599999739,5.449127199999566,5.449127199999566,5.449127199999566,5.449127199999566,5.734720599999946,None,5.734966599999552,5.749119699999937,5.749119699999937,5.749119699999937,5.749119699999937,6.035835899999711,None,,,,,,,,,,,,,,,,,,,,,,,,,,434710,001,2025-03-24_15h06.27.221,Estimulo_ICE,2024.2.4,60.08640424926991,2025-03-24 15h06.32.734484 -0300,
Estimulo_9,10,10,0,3.39999999999999,-3.39999999999999,3.39999999999999,-3.39999999999999,2.2,-2.2,-2.2,2.2,None,None,,,0,0,0,8,,,,,,,,,,,,,,,,,,,,,,,,,,,,,,,,,0,10,10,10,,,,,,,,,,,,,6.049303099999634,,,,6.036320899999737,6.049303099999634,6.049303099999634,6.049303099999634,6.049303099999634,6.3345714999995835,None,6.334814599999845,6.348963499999627,6.348963499999627,6.348963499999627,6.348963499999627,6.6349795999999515,None,,,,,,,,,,,,,,,,,,,,,,,,,,434710,001,2025-03-24_15h06.27.221,Estimulo_ICE,2024.2.4,60.08640424926991,2025-03-24 15h06.32.734484 -0300,
Estimulo_9,11,11,0,3.29999999999999,-3.29999999999999,3.29999999999999,-3.29999999999999,2.2,-2.2,-2.2,2.2,None,None,,,0,0,0,8,,,,,,,,,,,,,,,,,,,,,,,,,,,,,,,,,0,11,11,11,,,,,,,,,,,,,6.6493930999999975,,,,6.63532049999958,6.6493930999999975,6.6493930999999975,6.6493930999999975,6.6493930999999975,6.934601499999644,None,6.934837499999958,6.949108099999648,6.949108099999648,6.949108099999648,6.949108099999648,7.236496799999713,None,,,,,,,,,,,,,,,,,,,,,,,,,,434710,001,2025-03-24_15h06.27.221,Estimulo_ICE,2024.2.4,60.08640424926991,2025-03-24 15h06.32.734484 -0300,
Estimulo_9,12,12,0,3.19999999999999,-3.19999999999999,3.19999999999999,-3.19999999999999,2.2,-2.2,-2.2,2.2,None,None,,,0,0,0,8,,,,,,,,,,,,,,,,,,,,,,,,,,,,,,,,,0,12,12,12,,,,,,,,,,,,,7.250094199999694,,,,7.236828699999933,7.250094199999694,7.250094199999694,7.250094199999694,7.250094199999694,7.534740799999781,None,7.534978499999852,7.5489699999998265,7.5489699999998265,7.5489699999998265,7.5489699999998265,7.834914299999582,None,,,,,,,,,,,,,,,,,,,,,,,,,,434710,001,2025-03-24_15h06.27.221,Estimulo_ICE,2024.2.4,60.08640424926991,2025-03-24 15h06.32.734484 -0300,
Estimulo_9,13,13,0,3.09999999999999,-3.09999999999999,3.09999999999999,-3.09999999999999,2.2,-2.2,-2.2,2.2,None,None,,,0,0,0,8,,,,,,,,,,,,,,,,,,,,,,,,,,,,,,,,,0,13,13,13,,,,,,,,,,,,,7.849436999999853,,,,7.835296299999754,7.849436999999853,7.849436999999853,7.849436999999853,7.849436999999853,8.134564999999839,None,8.134813199999826,8.149126799999976,8.149126799999976,8.149126799999976,8.149126799999976,8.435630899999978,None,,,,,,,,,,,,,,,,,,,,,,,,,,434710,001,2025-03-24_15h06.27.221,Estimulo_ICE,2024.2.4,60.08640424926991,2025-03-24 15h06.32.734484 -0300,
Estimulo_9,14,14,0,2.99999999999999,-2.99999999999999,2.99999999999999,-2.99999999999999,2.2,-2.2,-2.2,2.2,None,None,,,0,0,0,8,,,,,,,,,,,,,,,,,,,,,,,,,,,,,,,,,0,14,14,14,,,,,,,,,,,,,8.449268599999868,,,,8.435969499999828,8.449268599999868,8.449268599999868,8.449268599999868,8.449268599999868,8.734672299999602,None,8.734932199999548,8.74900979999984,8.74900979999984,8.74900979999984,8.74900979999984,9.037055499999951,None,,,,,,,,,,,,,,,,,,,,,,,,,,434710,001,2025-03-24_15h06.27.221,Estimulo_ICE,2024.2.4,60.08640424926991,2025-03-24 15h06.32.734484 -0300,
Estimulo_9,15,15,0,2.89999999999999,-2.89999999999999,2.89999999999999,-2.89999999999999,2.2,-2.2,-2.2,2.2,None,None,,,0,0,0,8,,,,,,,,,,,,,,,,,,,,,,,,,,,,,,,,,0,15,15,15,,,,,,,,,,,,,9.051399899999979,,,,9.037444699999924,9.051399899999979,9.051399899999979,9.051399899999979,9.051399899999979,9.335479999999734,None,9.335719099999551,9.35029059999988,9.35029059999988,9.35029059999988,9.35029059999988,9.636941899999783,None,,,,,,,,,,,,,,,,,,,,,,,,,,434710,001,2025-03-24_15h06.27.221,Estimulo_ICE,2024.2.4,60.08640424926991,2025-03-24 15h06.32.734484 -0300,
Estimulo_9,16,16,0,2.79999999999999,-2.79999999999999,2.79999999999999,-2.79999999999999,2.2,-2.2,-2.2,2.2,None,None,,,0,0,0,8,,,,,,,,,,,,,,,,,,,,,,,,,,,,,,,,,0,16,16,16,,,,,,,,,,,,,9.651492399999825,,,,9.637300299999879,9.651492399999825,9.651492399999825,9.651492399999825,9.651492399999825,9.936651199999687,None,9.93690179999976,9.951425299999755,9.951425299999755,9.951425299999755,9.951425299999755,10.234952799999974,None,,,,,,,,,,,,,,,,,,,,,,,,,,434710,001,2025-03-24_15h06.27.221,Estimulo_ICE,2024.2.4,60.08640424926991,2025-03-24 15h06.32.734484 -0300,
Estimulo_9,17,17,0,2.69999999999999,-2.69999999999999,2.69999999999999,-2.69999999999999,2.2,-2.2,-2.2,2.2,None,None,,,0,0,0,8,,,,,,,,,,,,,,,,,,,,,,,,,,,,,,,,,0,17,17,17,,,,,,,,,,,,,10.249387299999853,,,,10.235314599999583,10.249387299999853,10.249387299999853,10.249387299999853,10.249387299999853,10.534974999999577,None,10.535226399999829,10.549606099999892,10.549606099999892,10.549606099999892,10.549606099999892,10.83510269999988,None,,,,,,,,,,,,,,,,,,,,,,,,,,434710,001,2025-03-24_15h06.27.221,Estimulo_ICE,2024.2.4,60.08640424926991,2025-03-24 15h06.32.734484 -0300,
Estimulo_9,18,18,0,2.59999999999999,-2.59999999999999,2.59999999999999,-2.59999999999999,2.2,-2.2,-2.2,2.2,None,None,,,0,0,0,8,,,,,,,,,,,,,,,,,,,,,,,,,,,,,,,,,0,18,18,18,,,,,,,,,,,,,10.849360899999738,,,,10.835463699999764,10.849360899999738,10.849360899999738,10.849360899999738,10.849360899999738,11.135039799999959,None,11.135291799999777,11.14947809999967,11.14947809999967,11.14947809999967,11.14947809999967,11.43521649999957,None,,,,,,,,,,,,,,,,,,,,,,,,,,434710,001,2025-03-24_15h06.27.221,Estimulo_ICE,2024.2.4,60.08640424926991,2025-03-24 15h06.32.734484 -0300,
Estimulo_9,19,19,0,2.49999999999999,-2.49999999999999,2.49999999999999,-2.49999999999999,2.2,-2.2,-2.2,2.2,None,None,,,0,0,0,8,,,,,,,,,,,,,,,,,,,,,,,,,,,,,,,,,0,19,19,19,,,,,,,,,,,,,11.449496099999578,,,,11.435579099999813,11.449496099999578,11.449496099999578,11.449496099999578,11.449496099999578,11.7365077999998,None,11.736767299999883,11.7495643999996,11.7495643999996,11.7495643999996,11.7495643999996,12.03510389999974,None,,,,,,,,,,,,,,,,,,,,,,,,,,434710,001,2025-03-24_15h06.27.221,Estimulo_ICE,2024.2.4,60.08640424926991,2025-03-24 15h06.32.734484 -0300,
Estimulo_9,20,20,0,2.39999999999999,-2.39999999999999,2.39999999999999,-2.39999999999999,2.2,-2.2,-2.2,2.2,None,None,,,0,0,0,8,,,,,,,,,,,,,,,,,,,,,,,,,,,,,,,,,0,20,20,20,,,,,,,,,,,,,12.049527099999978,,,,12.035465399999794,12.049527099999978,12.049527099999978,12.049527099999978,12.049527099999978,12.334884599999896,None,12.335136699999566,12.349559799999952,12.349559799999952,12.349559799999952,12.349559799999952,12.635272799999711,None,,,,,,,,,,,,,,,,,,,,,,,,,,434710,001,2025-03-24_15h06.27.221,Estimulo_ICE,2024.2.4,60.08640424926991,2025-03-24 15h06.32.734484 -0300,
Estimulo_9,21,21,0,2.29999999999999,-2.29999999999999,2.29999999999999,-2.29999999999999,2.2,-2.2,-2.2,2.2,None,None,,,0,0,0,8,,,,,,,,,,,,,,,,,,,,,,,,,,,,,,,,,0,21,21,21,,,,,,,,,,,,,12.649449499999719,,,,12.635631399999966,12.649449499999719,12.649449499999719,12.649449499999719,12.649449499999719,12.935015799999746,None,12.935269199999766,12.949446399999943,12.949446399999943,12.949446399999943,12.949446399999943,13.235071999999946,None,,,,,,,,,,,,,,,,,,,,,,,,,,434710,001,2025-03-24_15h06.27.221,Estimulo_ICE,2024.2.4,60.08640424926991,2025-03-24 15h06.32.734484 -0300,
Estimulo_9,22,22,0,2.19999999999999,-2.19999999999999,2.19999999999999,-2.19999999999999,2.2,-2.2,-2.2,2.2,None,None,,,0,0,0,8,,,,,,,,,,,,,,,,,,,,,,,,,,,,,,,,,0,22,22,22,,,,,,,,,,,,,13.249604599999657,,,,13.235431799999787,13.249604599999657,13.249604599999657,13.249604599999657,13.249604599999657,13.538339299999734,None,13.538861799999722,13.550447299999632,13.550447299999632,13.550447299999632,13.550447299999632,13.838439999999991,None,,,,,,,,,,,,,,,,,,,,,,,,,,434710,001,2025-03-24_15h06.27.221,Estimulo_ICE,2024.2.4,60.08640424926991,2025-03-24 15h06.32.734484 -0300,
Estimulo_9,23,23,0,2.09999999999999,-2.09999999999999,2.09999999999999,-2.09999999999999,2.2,-2.2,-2.2,2.2,None,None,,,0,0,0,8,,,,,,,,,,,,,,,,,,,,,,,,,,,,,,,,,0,23,23,23,,,,,,,,,,,,,13.850443099999666,,,,13.839172399999825,13.850443099999666,13.850443099999666,13.850443099999666,13.850443099999666,14.138278099999752,None,14.138793999999962,14.15030379999962,14.15030379999962,14.15030379999962,14.15030379999962,14.434946399999717,None,,,,,,,,,,,,,,,,,,,,,,,,,,434710,001,2025-03-24_15h06.27.221,Estimulo_ICE,2024.2.4,60.08640424926991,2025-03-24 15h06.32.734484 -0300,
Estimulo_9,24,24,0,1.99999999999999,-1.99999999999999,1.99999999999999,-1.99999999999999,2.2,-2.2,-2.2,2.2,None,None,,,0,0,0,8,,,,,,,,,,,,,,,,,,,,,,,,,,,,,,,,,0,24,24,24,,,,,,,,,,,,,14.449465599999712,,,,14.43531079999957,14.449465599999712,14.449465599999712,14.449465599999712,14.449465599999712,14.735045799999625,None,14.735299399999803,14.749455899999703,14.749455899999703,14.749455899999703,14.749455899999703,15.034869399999934,None,,,,,,,,,,,,,,,,,,,,,,,,,,434710,001,2025-03-24_15h06.27.221,Estimulo_ICE,2024.2.4,60.08640424926991,2025-03-24 15h06.32.734484 -0300,
Estimulo_9,25,25,0,1.89999999999999,-1.89999999999999,1.89999999999999,-1.89999999999999,2.2,-2.2,-2.2,2.2,None,None,,,0,0,0,8,,,,,,,,,,,,,,,,,,,,,,,,,,,,,,,,,0,25,25,25,,,,,,,,,,,,,15.049487399999634,,,,15.035230299999967,15.049487399999634,15.049487399999634,15.049487399999634,15.049487399999634,15.334870999999566,None,15.335124699999596,15.34945069999958,15.34945069999958,15.34945069999958,15.34945069999958,15.635029499999746,None,,,,,,,,,,,,,,,,,,,,,,,,,,434710,001,2025-03-24_15h06.27.221,Estimulo_ICE,2024.2.4,60.08640424926991,2025-03-24 15h06.32.734484 -0300,
Estimulo_9,26,26,0,1.79999999999999,-1.79999999999999,1.79999999999999,-1.79999999999999,2.2,-2.2,-2.2,2.2,None,None,,,0,0,0,8,,,,,,,,,,,,,,,,,,,,,,,,,,,,,,,,,0,26,26,26,,,,,,,,,,,,,15.649240899999768,,,,15.63537419999966,15.649240899999768,15.649240899999768,15.649240899999768,15.649240899999768,15.935961699999552,None,15.93619439999975,15.94955869999967,15.94955869999967,15.94955869999967,15.94955869999967,16.234958899999583,None,,,,,,,,,,,,,,,,,,,,,,,,,,434710,001,2025-03-24_15h06.27.221,Estimulo_ICE,2024.2.4,60.08640424926991,2025-03-24 15h06.32.734484 -0300,
Estimulo_9,27,27,0,1.69999999999999,-1.69999999999999,1.69999999999999,-1.69999999999999,2.2,-2.2,-2.2,2.2,None,None,,,0,0,0,8,,,,,,,,,,,,,,,,,,,,,,,,,,,,,,,,,0,27,27,27,,,,,,,,,,,,,16.24921949999998,,,,16.235302799999772,16.24921949999998,16.24921949999998,16.24921949999998,16.24921949999998,16.535153999999693,None,16.535384199999953,16.5495034999999,16.5495034999999,16.5495034999999,16.5495034999999,16.83488099999977,None,,,,,,,,,,,,,,,,,,,,,,,,,,434710,001,2025-03-24_15h06.27.221,Estimulo_ICE,2024.2.4,60.08640424926991,2025-03-24 15h06.32.734484 -0300,
Estimulo_9,28,28,0,1.59999999999999,-1.59999999999999,1.59999999999999,-1.59999999999999,2.2,-2.2,-2.2,2.2,None,None,,,0,0,0,8,,,,,,,,,,,,,,,,,,,,,,,,,,,,,,,,,0,28,28,28,,,,,,,,,,,,,16.849482899999657,,,,16.835223999999926,16.849482899999657,16.849482899999657,16.849482899999657,16.849482899999657,17.134745999999723,None,17.134986899999603,17.14918899999975,17.14918899999975,17.14918899999975,17.14918899999975,17.435060099999646,None,,,,,,,,,,,,,,,,,,,,,,,,,,434710,001,2025-03-24_15h06.27.221,Estimulo_ICE,2024.2.4,60.08640424926991,2025-03-24 15h06.32.734484 -0300,
Estimulo_9,29,29,0,1.49999999999999,-1.49999999999998,1.49999999999999,-1.49999999999998,2.2,-2.2,-2.2,2.2,None,None,,,0,0,0,8,,,,,,,,,,,,,,,,,,,,,,,,,,,,,,,,,0,29,29,29,,,,,,,,,,,,,17.44939999999997,,,,17.43540049999956,17.44939999999997,17.44939999999997,17.44939999999997,17.44939999999997,17.73500759999979,None,17.735259199999746,17.749380799999926,17.749380799999926,17.749380799999926,17.749380799999926,18.0349156999996,None,,,,,,,,,,,,,,,,,,,,,,,,,,434710,001,2025-03-24_15h06.27.221,Estimulo_ICE,2024.2.4,60.08640424926991,2025-03-24 15h06.32.734484 -0300,
Estimulo_9,30,30,0,1.39999999999999,-1.39999999999998,1.39999999999999,-1.39999999999998,2.2,-2.2,-2.2,2.2,None,None,,,0,0,0,8,,,,,,,,,,,,,,,,,,,,,,,,,,,,,,,,,0,30,30,30,,,,,,,,,,,,,18.04948499999955,,,,18.035270099999707,18.04948499999955,18.04948499999955,18.04948499999955,18.04948499999955,18.334933299999648,None,18.335165499999675,18.349419099999977,18.349419099999977,18.349419099999977,18.349419099999977,18.634918599999764,None,,,,,,,,,,,,,,,,,,,,,,,,,,434710,001,2025-03-24_15h06.27.221,Estimulo_ICE,2024.2.4,60.08640424926991,2025-03-24 15h06.32.734484 -0300,
Estimulo_9,31,31,0,1.29999999999999,-1.29999999999998,1.29999999999999,-1.29999999999998,2.2,-2.2,-2.2,2.2,None,None,,,0,0,0,8,,,,,,,,,,,,,,,,,,,,,,,,,,,,,,,,,0,31,31,31,,,,,,,,,,,,,18.64935379999997,,,,18.635254599999826,18.64935379999997,18.64935379999997,18.64935379999997,18.64935379999997,18.934908099999575,None,18.93513939999957,18.94927249999955,18.94927249999955,18.94927249999955,18.94927249999955,19.234626099999787,None,,,,,,,,,,,,,,,,,,,,,,,,,,434710,001,2025-03-24_15h06.27.221,Estimulo_ICE,2024.2.4,60.08640424926991,2025-03-24 15h06.32.734484 -0300,
Estimulo_9,32,32,0,1.19999999999999,-1.19999999999998,1.19999999999999,-1.19999999999998,2.2,-2.2,-2.2,2.2,None,None,,,0,0,0,8,,,,,,,,,,,,,,,,,,,,,,,,,,,,,,,,,0,32,32,32,,,,,,,,,,,,,19.249414799999613,,,,19.234968699999627,19.249414799999613,19.249414799999613,19.249414799999613,19.249414799999613,19.53493759999992,None,19.535173499999928,19.54937949999976,19.54937949999976,19.54937949999976,19.54937949999976,19.835109399999965,None,,,,,,,,,,,,,,,,,,,,,,,,,,434710,001,2025-03-24_15h06.27.221,Estimulo_ICE,2024.2.4,60.08640424926991,2025-03-24 15h06.32.734484 -0300,
Estimulo_9,33,33,0,1.09999999999999,-1.09999999999998,1.09999999999999,-1.09999999999998,2.2,-2.2,-2.2,2.2,None,None,,,0,0,0,8,,,,,,,,,,,,,,,,,,,,,,,,,,,,,,,,,0,33,33,33,,,,,,,,,,,,,19.849301999999625,,,,19.83545409999988,19.849301999999625,19.849301999999625,19.849301999999625,19.849301999999625,20.134747299999617,None,20.13498699999991,20.149516199999653,20.149516199999653,20.149516199999653,20.149516199999653,20.434957999999824,None,,,,,,,,,,,,,,,,,,,,,,,,,,434710,001,2025-03-24_15h06.27.221,Estimulo_ICE,2024.2.4,60.08640424926991,2025-03-24 15h06.32.734484 -0300,
Estimulo_9,0,0,0,,,,,,,,,,,,,0,0,0,8,,,,,,,,,,,,,,,,,,,,,,,,,,,,,,,,,,,,,,,,,,,,,,,,,,,,,,,,,,,,,,,,,,,20.47694189999993,20.482020199999624,21.935002499999882,,,,,,,,,,,,,,,,,,,,,,,434710,001,2025-03-24_15h06.27.221,Estimulo_ICE,2024.2.4,60.08640424926991,2025-03-24 15h06.32.734484 -0300,
Estimulo_6,0,0,0,1.1,-1.1,1.1,-1.1,2.2,-2.2,-2.2,2.2,,,None,None,0,1,1,5,,,,,,,,,,,,,,,,,,,,,0,0,0,0,,,,,,,,,,,,,,,,,,,,,,,,,22.015598099999806,,21.935109699999884,21.935481499999696,,,,,,,,,,,,,,,,,,22.008156699999745,22.015598099999806,22.015598099999806,22.015598099999806,22.015598099999806,22.23554639999975,None,22.235771099999965,22.249373899999682,22.249373899999682,22.249373899999682,22.249373899999682,22.549444799999947,22.549444799999947,22.549444799999947,22.549444799999947,22.535296599999583,None,,,,,434710,001,2025-03-24_15h06.27.221,Estimulo_ICE,2024.2.4,60.08640424926991,2025-03-24 15h06.32.734484 -0300,
Estimulo_6,1,1,0,1.2,-1.2,1.2,-1.2,2.2,-2.2,-2.2,2.2,,,None,None,0,1,1,5,,,,,,,,,,,,,,,,,,,,,0,1,1,1,,,,,,,,,,,,,,,,,,,,,,,,,22.549444799999947,,,,,,,,,,,,,,,,,,,,,22.535645799999656,22.549444799999947,22.549444799999947,22.549444799999947,22.549444799999947,22.83527449999974,None,22.835524499999792,22.849240299999565,22.849240299999565,22.849240299999565,22.849240299999565,23.14944779999996,23.14944779999996,23.14944779999996,23.14944779999996,23.135386299999936,None,22.849240299999565,22.849240299999565,22.849240299999565,22.849240299999565,434710,001,2025-03-24_15h06.27.221,Estimulo_ICE,2024.2.4,60.08640424926991,2025-03-24 15h06.32.734484 -0300,
Estimulo_6,2,2,0,1.3,-1.3,1.3,-1.3,2.2,-2.2,-2.2,2.2,,,None,None,0,1,1,5,,,,,,,,,,,,,,,,,,,,,0,2,2,2,,,,,,,,,,,,,,,,,,,,,,,,,23.14944779999996,,,,,,,,,,,,,,,,,,,,,23.13577419999956,23.14944779999996,23.14944779999996,23.14944779999996,23.14944779999996,23.43542959999968,None,23.435700599999564,23.44937409999966,23.44937409999966,23.44937409999966,23.44937409999966,23.74939789999962,23.74939789999962,23.74939789999962,23.74939789999962,23.735403399999996,None,23.44937409999966,23.44937409999966,23.44937409999966,23.44937409999966,434710,001,2025-03-24_15h06.27.221,Estimulo_ICE,2024.2.4,60.08640424926991,2025-03-24 15h06.32.734484 -0300,
Estimulo_6,3,3,0,1.4,-1.4,1.4,-1.4,2.2,-2.2,-2.2,2.2,,,None,None,0,1,1,5,,,,,,,,,,,,,,,,,,,,,0,3,3,3,,,,,,,,,,,,,,,,,,,,,,,,,23.74939789999962,,,,,,,,,,,,,,,,,,,,,23.73578929999985,23.74939789999962,23.74939789999962,23.74939789999962,23.74939789999962,24.03541819999964,None,24.03568849999965,24.04936869999983,24.04936869999983,24.04936869999983,24.04936869999983,24.349337399999968,24.349337399999968,24.349337399999968,24.349337399999968,24.33556039999985,None,24.04936869999983,24.04936869999983,24.04936869999983,24.04936869999983,434710,001,2025-03-24_15h06.27.221,Estimulo_ICE,2024.2.4,60.08640424926991,2025-03-24 15h06.32.734484 -0300,
Estimulo_6,4,4,0,1.5,-1.5,1.5,-1.5,2.2,-2.2,-2.2,2.2,,,None,None,0,1,1,5,,,,,,,,,,,,,,,,,,,,,0,4,4,4,,,,,,,,,,,,,,,,,,,,,,,,,24.349337399999968,,,,,,,,,,,,,,,,,,,,,24.335948599999938,24.349337399999968,24.349337399999968,24.349337399999968,24.349337399999968,24.63530869999977,None,24.635577499999727,24.649273999999878,24.649273999999878,24.649273999999878,24.649273999999878,24.949355699999614,24.949355699999614,24.949355699999614,24.949355699999614,24.93534009999985,None,24.649273999999878,24.649273999999878,24.649273999999878,24.649273999999878,434710,001,2025-03-24_15h06.27.221,Estimulo_ICE,2024.2.4,60.08640424926991,2025-03-24 15h06.32.734484 -0300,
Estimulo_6,5,5,0,1.6,-1.6,1.6,-1.6,2.2,-2.2,-2.2,2.2,,,None,None,0,1,1,5,,,,,,,,,,,,,,,,,,,,,0,5,5,5,,,,,,,,,,,,,,,,,,,,,,,,,24.949355699999614,,,,,,,,,,,,,,,,,,,,,24.935731499999747,24.949355699999614,24.949355699999614,24.949355699999614,24.949355699999614,25.238581499999782,None,25.23912859999973,25.250539299999673,25.250539299999673,25.250539299999673,25.250539299999673,,,,,25.535784799999874,None,,,,,434710,001,2025-03-24_15h06.27.221,Estimulo_ICE,2024.2.4,60.08640424926991,2025-03-24 15h06.32.734484 -0300,
Estimulo_6,6,6,0,1.7,-1.7,1.7,-1.7,2.2,-2.2,-2.2,2.2,,,None,None,0,1,1,5,,,,,,,,,,,,,,,,,,,,,0,6,6,6,,,,,,,,,,,,,,,,,,,,,,,,,25.549594399999933,,,,,,,,,,,,,,,,,,,,,25.536277399999562,25.549594399999933,25.549594399999933,25.549594399999933,25.549594399999933,25.830067499999586,None,25.830973899999663,25.849613399999726,25.849613399999726,25.849613399999726,25.849613399999726,,,,,26.139747299999726,None,,,,,434710,001,2025-03-24_15h06.27.221,Estimulo_ICE,2024.2.4,60.08640424926991,2025-03-24 15h06.32.734484 -0300,
Estimulo_6,7,7,0,1.8,-1.8,1.8,-1.8,2.2,-2.2,-2.2,2.2,,,None,None,0,1,1,5,,,,,,,,,,,,,,,,,,,,,0,7,7,7,,,,,,,,,,,,,,,,,,,,,,,,,26.15088109999988,,,,,,,,,,,,,,,,,,,,,26.14065619999974,26.15088109999988,26.15088109999988,26.15088109999988,26.15088109999988,26.439835499999845,None,26.440475199999582,26.450865099999646,26.450865099999646,26.450865099999646,26.450865099999646,,,,,26.735373499999696,None,,,,,434710,001,2025-03-24_15h06.27.221,Estimulo_ICE,2024.2.4,60.08640424926991,2025-03-24 15h06.32.734484 -0300,
Estimulo_6,8,8,0,1.9,-1.9,1.9,-1.9,2.2,-2.2,-2.2,2.2,,,None,None,0,1,1,5,,,,,,,,,,,,,,,,,,,,,0,8,8,8,,,,,,,,,,,,,,,,,,,,,,,,,26.749346299999615,,,,,,,,,,,,,,,,,,,,,26.73573499999975,26.749346299999615,26.749346299999615,26.749346299999615,26.749346299999615,27.035384599999816,None,27.035661699999764,27.049250899999606,27.049250899999606,27.049250899999606,27.049250899999606,27.349066599999787,27.349066599999787,27.349066599999787,27.349066599999787,27.33519639999986,None,27.049250899999606,27.049250899999606,27.049250899999606,27.049250899999606,434710,001,2025-03-24_15h06.27.221,Estimulo_ICE,2024.2.4,60.08640424926991,2025-03-24 15h06.32.734484 -0300,
Estimulo_6,9,9,0,2,-2,2,-2,2.2,-2.2,-2.2,2.2,,,None,None,0,1,1,5,,,,,,,,,,,,,,,,,,,,,0,9,9,9,,,,,,,,,,,,,,,,,,,,,,,,,27.349066599999787,,,,,,,,,,,,,,,,,,,,,27.335538799999995,27.349066599999787,27.349066599999787,27.349066599999787,27.349066599999787,27.635253099999773,None,27.635497199999918,27.64946219999956,27.64946219999956,27.64946219999956,27.64946219999956,27.949107199999617,27.949107199999617,27.949107199999617,27.949107199999617,27.93540179999991,None,27.64946219999956,27.64946219999956,27.64946219999956,27.64946219999956,434710,001,2025-03-24_15h06.27.221,Estimulo_ICE,2024.2.4,60.08640424926991,2025-03-24 15h06.32.734484 -0300,
Estimulo_6,10,10,0,2.1,-2.1,2.1,-2.1,2.2,-2.2,-2.2,2.2,,,None,None,0,1,1,5,,,,,,,,,,,,,,,,,,,,,0,10,10,10,,,,,,,,,,,,,,,,,,,,,,,,,27.949107199999617,,,,,,,,,,,,,,,,,,,,,27.93574079999962,27.949107199999617,27.949107199999617,27.949107199999617,27.949107199999617,28.23512999999957,None,28.23538219999955,28.24938559999964,28.24938559999964,28.24938559999964,28.24938559999964,,,,,28.537003099999765,None,28.24938559999964,28.24938559999964,28.24938559999964,28.24938559999964,434710,001,2025-03-24_15h06.27.221,Estimulo_ICE,2024.2.4,60.08640424926991,2025-03-24 15h06.32.734484 -0300,
Estimulo_6,11,11,0,2.2,-2.2,2.2,-2.2,2.2,-2.2,-2.2,2.2,,,None,None,0,1,1,5,,,,,,,,,,,,,,,,,,,,,0,11,11,11,,,,,,,,,,,,,,,,,,,,,,,,,28.549519999999575,,,,,,,,,,,,,,,,,,,,,28.5376540999996,28.549519999999575,28.549519999999575,28.549519999999575,28.549519999999575,28.835464499999944,None,28.835723699999562,28.84912809999969,28.84912809999969,28.84912809999969,28.84912809999969,29.149505099999715,29.149505099999715,29.149505099999715,29.149505099999715,29.135723499999585,None,28.84912809999969,28.84912809999969,28.84912809999969,28.84912809999969,434710,001,2025-03-24_15h06.27.221,Estimulo_ICE,2024.2.4,60.08640424926991,2025-03-24 15h06.32.734484 -0300,
Estimulo_6,12,12,0,2.3,-2.3,2.3,-2.3,2.2,-2.2,-2.2,2.2,,,None,None,0,1,1,5,,,,,,,,,,,,,,,,,,,,,0,12,12,12,,,,,,,,,,,,,,,,,,,,,,,,,29.149505099999715,,,,,,,,,,,,,,,,,,,,,29.136092199999894,29.149505099999715,29.149505099999715,29.149505099999715,29.149505099999715,29.43518559999984,None,29.4354258999997,29.449135399999705,29.449135399999705,29.449135399999705,29.449135399999705,29.74922179999976,29.74922179999976,29.74922179999976,29.74922179999976,29.735421899999892,None,29.449135399999705,29.449135399999705,29.449135399999705,29.449135399999705,434710,001,2025-03-24_15h06.27.221,Estimulo_ICE,2024.2.4,60.08640424926991,2025-03-24 15h06.32.734484 -0300,
Estimulo_6,13,13,0,2.4,-2.4,2.4,-2.4,2.2,-2.2,-2.2,2.2,,,None,None,0,1,1,5,,,,,,,,,,,,,,,,,,,,,0,13,13,13,,,,,,,,,,,,,,,,,,,,,,,,,29.74922179999976,,,,,,,,,,,,,,,,,,,,,29.735771099999965,29.74922179999976,29.74922179999976,29.74922179999976,29.74922179999976,30.035308899999563,None,30.035548099999687,30.04942119999987,30.04942119999987,30.04942119999987,30.04942119999987,30.349337899999682,30.349337899999682,30.349337899999682,30.349337899999682,30.33526049999955,None,30.04942119999987,30.04942119999987,30.04942119999987,30.04942119999987,434710,001,2025-03-24_15h06.27.221,Estimulo_ICE,2024.2.4,60.08640424926991,2025-03-24 15h06.32.734484 -0300,
,14,14,0,2.5,-2.5,2.5,-2.5,2.2,-2.2,-2.2,2.2,,,,,,,,,,,,,,,,,,,,,,,,,,,,,0,14,14,14,,,,,,,,,,,,,,,,,,,,,,,,,30.349337899999682,,,,,,,,,,,,,,,,,,,,,30.335607099999834,30.349337899999682,30.349337899999682,30.349337899999682,30.349337899999682,30.634873699999844,None,30.63513469999998,30.64909929999976,30.64909929999976,30.64909929999976,30.64909929999976,,,,,,,30.64909929999976,30.64909929999976,30.64909929999976,30.64909929999976,,,,,,,,
