LoopName,thisN,thisTrialN,thisRepN,px1,px2,px3,px4,py1,py2,py3,py4,key_resp_4.keys,key_resp_5.keys,key_resp_4.rt,key_resp_4.duration,key_resp_5.rt,key_resp_5.duration,MainLoop.thisRepN,MainLoop.thisTrialN,MainLoop.thisN,MainLoop.thisIndex,loop_1.thisRepN,loop_1.thisTrialN,loop_1.thisN,loop_1.thisIndex,loop_2.thisRepN,loop_2.thisTrialN,loop_2.thisN,loop_2.thisIndex,loop_3.thisRepN,loop_3.thisTrialN,loop_3.thisN,loop_3.thisIndex,loop_4.thisRepN,loop_4.thisTrialN,loop_4.thisN,loop_4.thisIndex,loop_5.thisRepN,loop_5.thisTrialN,loop_5.thisN,loop_5.thisIndex,loop_6.thisRepN,loop_6.thisTrialN,loop_6.thisN,loop_6.thisIndex,loop_7.thisRepN,loop_7.thisTrialN,loop_7.thisN,loop_7.thisIndex,loop_8.thisRepN,loop_8.thisTrialN,loop_8.thisN,loop_8.thisIndex,loop_9.thisRepN,loop_9.thisTrialN,loop_9.thisN,loop_9.thisIndex,loop_10.thisRepN,loop_10.thisTrialN,loop_10.thisN,loop_10.thisIndex,loop_11.thisRepN,loop_11.thisTrialN,loop_11.thisN,loop_11.thisIndex,loop_12.thisRepN,loop_12.thisTrialN,loop_12.thisN,loop_12.thisIndex,thisRow.t,notes,salvar.started,salvar.stopped,codigo.started,codigo.stopped,trial_3.started,image_5.started,image_6.started,polygon_3.started,key_resp_4.started,text_3.started,trial_3.stopped,loop_7.key_resp_4.keys,trial_4.started,image_7.started,image_8.started,polygon_4.started,key_resp_5.started,text_4.started,image_7.stopped,image_8.stopped,polygon_4.stopped,key_resp_5.stopped,text_4.stopped,trial_4.stopped,loop_7.key_resp_5.keys,image_5.stopped,image_6.stopped,polygon_3.stopped,key_resp_4.stopped,text_3.stopped,loop_7.key_resp_4.rt,loop_7.key_resp_4.duration,_intertrial_interval_.started,polygon_5.started,_intertrial_interval_.stopped,loop_6.key_resp_4.keys,loop_6.key_resp_5.keys,loop_6.key_resp_5.rt,loop_6.key_resp_5.duration,participant,session,date,expName,psychopyVersion,frameRate,expStart,
,,,,,,,,,,,,,,,,,,,,,,,,,,,,,,,,,,,,,,,,,,,,,,,,,,,,,,,,,,,,,,,,,,,,,,,,0.016291399999772693,0.016649799999868264,,,,,,,,,,,,,,,,,,,,,,,,,,,,,,,,,,,,,,500860,001,2025-03-26_15h57.44.587,Estimulo_ICE,2024.2.4,60.150846292379256,2025-03-26 15h57.48.387047 -0300,
Estimulo_7,0,0,0,2.2,-2.2,-2.2,2.2,4.4,-4.4,4.4,-4.4,None,None,,,,,0,0,0,6,,,,,,,,,,,,,,,,,,,,,,,,,0,0,0,0,,,,,,,,,,,,,,,,,,,,,0.21383179999975255,,,,0.021098199999869394,0.02136560000008103,0.14557079999985945,0.21383179999975255,0.21383179999975255,0.21383179999975255,0.21383179999975255,0.21383179999975255,0.317265099999986,None,0.31747889999996914,0.32981359999985216,0.32981359999985216,0.32981359999985216,0.32981359999985216,0.32981359999985216,0.6297429999999622,0.6297429999999622,0.6297429999999622,0.6297429999999622,0.6297429999999622,0.6167436999999154,None,,,,,,,,,,,,,,,500860,001,2025-03-26_15h57.44.587,Estimulo_ICE,2024.2.4,60.150846292379256,2025-03-26 15h57.48.387047 -0300,
Estimulo_7,1,1,0,2.2,-2.2,-2.2,2.2,4.3,-4.3,4.3,-4.3,None,None,,,,,0,0,0,6,,,,,,,,,,,,,,,,,,,,,,,,,0,1,1,1,,,,,,,,,,,,,,,,,,,,,0.6297429999999622,,,,,,0.6171102999996947,0.6297429999999622,0.6297429999999622,0.6297429999999622,0.6297429999999622,0.6297429999999622,0.9170036000000437,None,0.9172593999996934,0.9296182999996745,0.9296182999996745,0.9296182999996745,0.9296182999996745,0.9296182999996745,1.2297411999998076,1.2297411999998076,1.2297411999998076,1.2297411999998076,1.2297411999998076,1.2168830000000526,None,0.9296182999996745,0.9296182999996745,0.9296182999996745,0.9296182999996745,0.9296182999996745,,,,,,,,,,500860,001,2025-03-26_15h57.44.587,Estimulo_ICE,2024.2.4,60.150846292379256,2025-03-26 15h57.48.387047 -0300,
Estimulo_7,2,2,0,2.2,-2.2,-2.2,2.2,4.2,-4.2,4.2,-4.2,None,None,,,,,0,0,0,6,,,,,,,,,,,,,,,,,,,,,,,,,0,2,2,2,,,,,,,,,,,,,,,,,,,,,1.2297411999998076,,,,,,1.2172479000000749,1.2297411999998076,1.2297411999998076,1.2297411999998076,1.2297411999998076,1.2297411999998076,1.5168453999999656,None,1.5171000999998796,1.5297129999999015,1.5297129999999015,1.5297129999999015,1.5297129999999015,1.5297129999999015,1.8296479999999065,1.8296479999999065,1.8296479999999065,1.8296479999999065,1.8296479999999065,1.8167368999997962,None,1.5297129999999015,1.5297129999999015,1.5297129999999015,1.5297129999999015,1.5297129999999015,,,,,,,,,,500860,001,2025-03-26_15h57.44.587,Estimulo_ICE,2024.2.4,60.150846292379256,2025-03-26 15h57.48.387047 -0300,
Estimulo_7,3,3,0,2.2,-2.2,-2.2,2.2,4.1,-4.1,4.1,-4.1,None,None,,,,,0,0,0,6,,,,,,,,,,,,,,,,,,,,,,,,,0,3,3,3,,,,,,,,,,,,,,,,,,,,,1.8296479999999065,,,,,,1.8171012999996492,1.8296479999999065,1.8296479999999065,1.8296479999999065,1.8296479999999065,1.8296479999999065,2.116685499999676,None,2.1169393999998647,2.1297481999999945,2.1297481999999945,2.1297481999999945,2.1297481999999945,2.1297481999999945,2.429536199999802,2.429536199999802,2.429536199999802,2.429536199999802,2.429536199999802,2.416779299999689,None,2.1297481999999945,2.1297481999999945,2.1297481999999945,2.1297481999999945,2.1297481999999945,,,,,,,,,,500860,001,2025-03-26_15h57.44.587,Estimulo_ICE,2024.2.4,60.150846292379256,2025-03-26 15h57.48.387047 -0300,
Estimulo_7,4,4,0,2.2,-2.2,-2.2,2.2,4,-4,4,-4,None,None,,,,,0,0,0,6,,,,,,,,,,,,,,,,,,,,,,,,,0,4,4,4,,,,,,,,,,,,,,,,,,,,,2.429536199999802,,,,,,2.417144499999722,2.429536199999802,2.429536199999802,2.429536199999802,2.429536199999802,2.429536199999802,2.7168063999997685,None,2.717052799999692,2.7297309999999015,2.7297309999999015,2.7297309999999015,2.7297309999999015,2.7297309999999015,3.0297897000000376,3.0297897000000376,3.0297897000000376,3.0297897000000376,3.0297897000000376,3.0164473999998336,None,2.7297309999999015,2.7297309999999015,2.7297309999999015,2.7297309999999015,2.7297309999999015,,,,,,,,,,500860,001,2025-03-26_15h57.44.587,Estimulo_ICE,2024.2.4,60.150846292379256,2025-03-26 15h57.48.387047 -0300,
Estimulo_7,5,5,0,2.2,-2.2,-2.2,2.2,3.9,-3.9,3.9,-3.9,None,None,,,,,0,0,0,6,,,,,,,,,,,,,,,,,,,,,,,,,0,5,5,5,,,,,,,,,,,,,,,,,,,,,3.0297897000000376,,,,,,3.0167763999997987,3.0297897000000376,3.0297897000000376,3.0297897000000376,3.0297897000000376,3.0297897000000376,3.316903999999795,None,3.3171606999999312,3.329836200000045,3.329836200000045,3.329836200000045,3.329836200000045,3.329836200000045,3.6297208999999384,3.6297208999999384,3.6297208999999384,3.6297208999999384,3.6297208999999384,3.6168250999999145,None,3.329836200000045,3.329836200000045,3.329836200000045,3.329836200000045,3.329836200000045,,,,,,,,,,500860,001,2025-03-26_15h57.44.587,Estimulo_ICE,2024.2.4,60.150846292379256,2025-03-26 15h57.48.387047 -0300,
Estimulo_7,6,6,0,2.2,-2.2,-2.2,2.2,3.8,-3.8,3.8,-3.8,None,None,,,,,0,0,0,6,,,,,,,,,,,,,,,,,,,,,,,,,0,6,6,6,,,,,,,,,,,,,,,,,,,,,3.6297208999999384,,,,,,3.6171896000000743,3.6297208999999384,3.6297208999999384,3.6297208999999384,3.6297208999999384,3.6297208999999384,3.916815399999905,None,3.9170622999999978,3.929682999999841,3.929682999999841,3.929682999999841,3.929682999999841,3.929682999999841,4.2297803999999815,4.2297803999999815,4.2297803999999815,4.2297803999999815,4.2297803999999815,4.216858599999796,None,3.929682999999841,3.929682999999841,3.929682999999841,3.929682999999841,3.929682999999841,,,,,,,,,,500860,001,2025-03-26_15h57.44.587,Estimulo_ICE,2024.2.4,60.150846292379256,2025-03-26 15h57.48.387047 -0300,
Estimulo_7,7,7,0,2.2,-2.2,-2.2,2.2,3.7,-3.7,3.7,-3.7,None,None,,,,,0,0,0,6,,,,,,,,,,,,,,,,,,,,,,,,,0,7,7,7,,,,,,,,,,,,,,,,,,,,,4.2297803999999815,,,,,,4.217224199999691,4.2297803999999815,4.2297803999999815,4.2297803999999815,4.2297803999999815,4.2297803999999815,4.516890299999886,None,4.517148099999758,4.529848899999706,4.529848899999706,4.529848899999706,4.529848899999706,4.529848899999706,4.829726999999821,4.829726999999821,4.829726999999821,4.829726999999821,4.829726999999821,4.816677599999821,None,4.529848899999706,4.529848899999706,4.529848899999706,4.529848899999706,4.529848899999706,,,,,,,,,,500860,001,2025-03-26_15h57.44.587,Estimulo_ICE,2024.2.4,60.150846292379256,2025-03-26 15h57.48.387047 -0300,
Estimulo_7,8,8,0,2.2,-2.2,-2.2,2.2,3.6,-3.6,3.6,-3.6,None,None,,,,,0,0,0,6,,,,,,,,,,,,,,,,,,,,,,,,,0,8,8,8,,,,,,,,,,,,,,,,,,,,,4.829726999999821,,,,,,4.817003199999817,4.829726999999821,4.829726999999821,4.829726999999821,4.829726999999821,4.829726999999821,5.116911300000083,None,5.117166300000008,5.129718899999716,5.129718899999716,5.129718899999716,5.129718899999716,5.129718899999716,5.429581899999903,5.429581899999903,5.429581899999903,5.429581899999903,5.429581899999903,5.416829100000086,None,5.129718899999716,5.129718899999716,5.129718899999716,5.129718899999716,5.129718899999716,,,,,,,,,,500860,001,2025-03-26_15h57.44.587,Estimulo_ICE,2024.2.4,60.150846292379256,2025-03-26 15h57.48.387047 -0300,
Estimulo_7,9,9,0,2.2,-2.2,-2.2,2.2,3.5,-3.5,3.5,-3.5,None,None,,,,,0,0,0,6,,,,,,,,,,,,,,,,,,,,,,,,,0,9,9,9,,,,,,,,,,,,,,,,,,,,,5.429581899999903,,,,,,5.417196599999897,5.429581899999903,5.429581899999903,5.429581899999903,5.429581899999903,5.429581899999903,5.71676750000006,None,5.717023100000006,5.729719099999784,5.729719099999784,5.729719099999784,5.729719099999784,5.729719099999784,6.0297043999999005,6.0297043999999005,6.0297043999999005,6.0297043999999005,6.0297043999999005,6.016784099999768,None,5.729719099999784,5.729719099999784,5.729719099999784,5.729719099999784,5.729719099999784,,,,,,,,,,500860,001,2025-03-26_15h57.44.587,Estimulo_ICE,2024.2.4,60.150846292379256,2025-03-26 15h57.48.387047 -0300,
Estimulo_7,10,10,0,2.2,-2.2,-2.2,2.2,3.39999999999999,-3.39999999999999,3.39999999999999,-3.39999999999999,None,None,,,,,0,0,0,6,,,,,,,,,,,,,,,,,,,,,,,,,0,10,10,10,,,,,,,,,,,,,,,,,,,,,6.0297043999999005,,,,,,6.017140200000085,6.0297043999999005,6.0297043999999005,6.0297043999999005,6.0297043999999005,6.0297043999999005,6.316810099999657,None,6.3170648999998775,6.329720499999894,6.329720499999894,6.329720499999894,6.329720499999894,6.329720499999894,6.62977759999967,6.62977759999967,6.62977759999967,6.62977759999967,6.62977759999967,6.6168878999997105,None,6.329720499999894,6.329720499999894,6.329720499999894,6.329720499999894,6.329720499999894,,,,,,,,,,500860,001,2025-03-26_15h57.44.587,Estimulo_ICE,2024.2.4,60.150846292379256,2025-03-26 15h57.48.387047 -0300,
Estimulo_7,11,11,0,2.2,-2.2,-2.2,2.2,3.29999999999999,-3.29999999999999,3.29999999999999,-3.29999999999999,None,None,,,,,0,0,0,6,,,,,,,,,,,,,,,,,,,,,,,,,0,11,11,11,,,,,,,,,,,,,,,,,,,,,6.62977759999967,,,,,,6.617257899999913,6.62977759999967,6.62977759999967,6.62977759999967,6.62977759999967,6.62977759999967,6.916899099999682,None,6.917145500000061,6.929854900000009,6.929854900000009,6.929854900000009,6.929854900000009,6.929854900000009,7.229615400000057,7.229615400000057,7.229615400000057,7.229615400000057,7.229615400000057,7.216701099999682,None,6.929854900000009,6.929854900000009,6.929854900000009,6.929854900000009,6.929854900000009,,,,,,,,,,500860,001,2025-03-26_15h57.44.587,Estimulo_ICE,2024.2.4,60.150846292379256,2025-03-26 15h57.48.387047 -0300,
Estimulo_7,12,12,0,2.2,-2.2,-2.2,2.2,3.19999999999999,-3.19999999999999,3.19999999999999,-3.19999999999999,None,None,,,,,0,0,0,6,,,,,,,,,,,,,,,,,,,,,,,,,0,12,12,12,,,,,,,,,,,,,,,,,,,,,7.229615400000057,,,,,,7.217071600000054,7.229615400000057,7.229615400000057,7.229615400000057,7.229615400000057,7.229615400000057,7.516809199999898,None,7.517054099999768,7.529693099999804,7.529693099999804,7.529693099999804,7.529693099999804,7.529693099999804,7.829744899999696,7.829744899999696,7.829744899999696,7.829744899999696,7.829744899999696,7.816806899999847,None,7.529693099999804,7.529693099999804,7.529693099999804,7.529693099999804,7.529693099999804,,,,,,,,,,500860,001,2025-03-26_15h57.44.587,Estimulo_ICE,2024.2.4,60.150846292379256,2025-03-26 15h57.48.387047 -0300,
Estimulo_7,13,13,0,2.2,-2.2,-2.2,2.2,3.09999999999999,-3.09999999999999,3.09999999999999,-3.09999999999999,None,None,,,,,0,0,0,6,,,,,,,,,,,,,,,,,,,,,,,,,0,13,13,13,,,,,,,,,,,,,,,,,,,,,7.829744899999696,,,,,,7.817175399999996,7.829744899999696,7.829744899999696,7.829744899999696,7.829744899999696,7.829744899999696,8.116652199999862,None,8.116881399999784,8.129663400000027,8.129663400000027,8.129663400000027,8.129663400000027,8.129663400000027,8.429709999999886,8.429709999999886,8.429709999999886,8.429709999999886,8.429709999999886,8.41679380000005,None,8.129663400000027,8.129663400000027,8.129663400000027,8.129663400000027,8.129663400000027,,,,,,,,,,500860,001,2025-03-26_15h57.44.587,Estimulo_ICE,2024.2.4,60.150846292379256,2025-03-26 15h57.48.387047 -0300,
Estimulo_7,14,14,0,2.2,-2.2,-2.2,2.2,2.99999999999999,-2.99999999999999,2.99999999999999,-2.99999999999999,None,None,,,,,0,0,0,6,,,,,,,,,,,,,,,,,,,,,,,,,0,14,14,14,,,,,,,,,,,,,,,,,,,,,8.429709999999886,,,,,,8.41716150000002,8.429709999999886,8.429709999999886,8.429709999999886,8.429709999999886,8.429709999999886,8.716820000000098,None,8.717066199999863,8.729715899999974,8.729715899999974,8.729715899999974,8.729715899999974,8.729715899999974,9.02955619999966,9.02955619999966,9.02955619999966,9.02955619999966,9.02955619999966,9.016913899999963,None,8.729715899999974,8.729715899999974,8.729715899999974,8.729715899999974,8.729715899999974,,,,,,,,,,500860,001,2025-03-26_15h57.44.587,Estimulo_ICE,2024.2.4,60.150846292379256,2025-03-26 15h57.48.387047 -0300,
Estimulo_7,15,15,0,2.2,-2.2,-2.2,2.2,2.89999999999999,-2.89999999999999,2.89999999999999,-2.89999999999999,None,None,,,,,0,0,0,6,,,,,,,,,,,,,,,,,,,,,,,,,0,15,15,15,,,,,,,,,,,,,,,,,,,,,9.02955619999966,,,,,,9.017317599999842,9.02955619999966,9.02955619999966,9.02955619999966,9.02955619999966,9.02955619999966,9.316781199999696,None,9.31703809999999,9.329583700000057,9.329583700000057,9.329583700000057,9.329583700000057,9.329583700000057,9.629532799999652,9.629532799999652,9.629532799999652,9.629532799999652,9.629532799999652,9.616593100000046,None,9.329583700000057,9.329583700000057,9.329583700000057,9.329583700000057,9.329583700000057,,,,,,,,,,500860,001,2025-03-26_15h57.44.587,Estimulo_ICE,2024.2.4,60.150846292379256,2025-03-26 15h57.48.387047 -0300,
Estimulo_7,16,16,0,2.2,-2.2,-2.2,2.2,2.79999999999999,-2.79999999999999,2.79999999999999,-2.79999999999999,None,None,,,,,0,0,0,6,,,,,,,,,,,,,,,,,,,,,,,,,0,16,16,16,,,,,,,,,,,,,,,,,,,,,9.629532799999652,,,,,,9.616928899999948,9.629532799999652,9.629532799999652,9.629532799999652,9.629532799999652,9.629532799999652,9.916769699999804,None,9.917026699999951,9.929704499999843,9.929704499999843,9.929704499999843,9.929704499999843,9.929704499999843,10.229576899999756,10.229576899999756,10.229576899999756,10.229576899999756,10.229576899999756,10.216756699999678,None,9.929704499999843,9.929704499999843,9.929704499999843,9.929704499999843,9.929704499999843,,,,,,,,,,500860,001,2025-03-26_15h57.44.587,Estimulo_ICE,2024.2.4,60.150846292379256,2025-03-26 15h57.48.387047 -0300,
Estimulo_7,17,17,0,2.2,-2.2,-2.2,2.2,2.69999999999999,-2.69999999999999,2.69999999999999,-2.69999999999999,None,None,,,,,0,0,0,6,,,,,,,,,,,,,,,,,,,,,,,,,0,17,17,17,,,,,,,,,,,,,,,,,,,,,10.229576899999756,,,,,,10.21711039999991,10.229576899999756,10.229576899999756,10.229576899999756,10.229576899999756,10.229576899999756,10.516658799999732,None,10.516915799999879,10.529516300000068,10.529516300000068,10.529516300000068,10.529516300000068,10.529516300000068,10.829676800000016,10.829676800000016,10.829676800000016,10.829676800000016,10.829676800000016,10.816781600000013,None,10.529516300000068,10.529516300000068,10.529516300000068,10.529516300000068,10.529516300000068,,,,,,,,,,500860,001,2025-03-26_15h57.44.587,Estimulo_ICE,2024.2.4,60.150846292379256,2025-03-26 15h57.48.387047 -0300,
Estimulo_7,18,18,0,2.2,-2.2,-2.2,2.2,2.59999999999999,-2.59999999999999,2.59999999999999,-2.59999999999999,None,None,,,,,0,0,0,6,,,,,,,,,,,,,,,,,,,,,,,,,0,18,18,18,,,,,,,,,,,,,,,,,,,,,10.829676800000016,,,,,,10.817148799999813,10.829676800000016,10.829676800000016,10.829676800000016,10.829676800000016,10.829676800000016,11.11677439999994,None,11.117033099999844,11.129691699999967,11.129691699999967,11.129691699999967,11.129691699999967,11.129691699999967,11.42972269999973,11.42972269999973,11.42972269999973,11.42972269999973,11.42972269999973,11.416798599999765,None,11.129691699999967,11.129691699999967,11.129691699999967,11.129691699999967,11.129691699999967,,,,,,,,,,500860,001,2025-03-26_15h57.44.587,Estimulo_ICE,2024.2.4,60.150846292379256,2025-03-26 15h57.48.387047 -0300,
Estimulo_7,19,19,0,2.2,-2.2,-2.2,2.2,2.49999999999999,-2.49999999999999,2.49999999999999,-2.49999999999999,None,None,,,,,0,0,0,6,,,,,,,,,,,,,,,,,,,,,,,,,0,19,19,19,,,,,,,,,,,,,,,,,,,,,11.42972269999973,,,,,,11.417168499999661,11.42972269999973,11.42972269999973,11.42972269999973,11.42972269999973,11.42972269999973,11.716586300000017,None,11.716822899999897,11.729711699999825,11.729711699999825,11.729711699999825,11.729711699999825,11.729711699999825,12.029730499999914,12.029730499999914,12.029730499999914,12.029730499999914,12.029730499999914,12.016746499999954,None,11.729711699999825,11.729711699999825,11.729711699999825,11.729711699999825,11.729711699999825,,,,,,,,,,500860,001,2025-03-26_15h57.44.587,Estimulo_ICE,2024.2.4,60.150846292379256,2025-03-26 15h57.48.387047 -0300,
Estimulo_7,20,20,0,2.2,-2.2,-2.2,2.2,2.39999999999999,-2.39999999999999,2.39999999999999,-2.39999999999999,None,None,,,,,0,0,0,6,,,,,,,,,,,,,,,,,,,,,,,,,0,20,20,20,,,,,,,,,,,,,,,,,,,,,12.029730499999914,,,,,,12.01711529999966,12.029730499999914,12.029730499999914,12.029730499999914,12.029730499999914,12.029730499999914,12.31677609999997,None,12.317031999999926,12.329696100000092,12.329696100000092,12.329696100000092,12.329696100000092,12.329696100000092,12.629677599999923,12.629677599999923,12.629677599999923,12.629677599999923,12.629677599999923,12.616744899999958,None,12.329696100000092,12.329696100000092,12.329696100000092,12.329696100000092,12.329696100000092,,,,,,,,,,500860,001,2025-03-26_15h57.44.587,Estimulo_ICE,2024.2.4,60.150846292379256,2025-03-26 15h57.48.387047 -0300,
Estimulo_7,21,21,0,2.2,-2.2,-2.2,2.2,2.29999999999999,-2.29999999999999,2.29999999999999,-2.29999999999999,None,None,,,,,0,0,0,6,,,,,,,,,,,,,,,,,,,,,,,,,0,21,21,21,,,,,,,,,,,,,,,,,,,,,12.629677599999923,,,,,,12.617114799999854,12.629677599999923,12.629677599999923,12.629677599999923,12.629677599999923,12.629677599999923,12.91678920000004,None,12.91704609999988,12.929748699999891,12.929748699999891,12.929748699999891,12.929748699999891,12.929748699999891,13.229490499999883,13.229490499999883,13.229490499999883,13.229490499999883,13.229490499999883,13.216785600000094,None,12.929748699999891,12.929748699999891,12.929748699999891,12.929748699999891,12.929748699999891,,,,,,,,,,500860,001,2025-03-26_15h57.44.587,Estimulo_ICE,2024.2.4,60.150846292379256,2025-03-26 15h57.48.387047 -0300,
Estimulo_7,22,22,0,2.2,-2.2,-2.2,2.2,2.19999999999999,-2.19999999999999,2.19999999999999,-2.19999999999999,None,None,,,,,0,0,0,6,,,,,,,,,,,,,,,,,,,,,,,,,0,22,22,22,,,,,,,,,,,,,,,,,,,,,13.229490499999883,,,,,,13.217141000000083,13.229490499999883,13.229490499999883,13.229490499999883,13.229490499999883,13.229490499999883,13.516795099999854,None,13.517052199999853,13.529651699999704,13.529651699999704,13.529651699999704,13.529651699999704,13.529651699999704,13.82975469999974,13.82975469999974,13.82975469999974,13.82975469999974,13.82975469999974,13.816714799999772,None,13.529651699999704,13.529651699999704,13.529651699999704,13.529651699999704,13.529651699999704,,,,,,,,,,500860,001,2025-03-26_15h57.44.587,Estimulo_ICE,2024.2.4,60.150846292379256,2025-03-26 15h57.48.387047 -0300,
Estimulo_7,23,23,0,2.2,-2.2,-2.2,2.2,2.09999999999999,-2.09999999999999,2.09999999999999,-2.09999999999999,None,None,,,,,0,0,0,6,,,,,,,,,,,,,,,,,,,,,,,,,0,23,23,23,,,,,,,,,,,,,,,,,,,,,13.82975469999974,,,,,,13.817083699999785,13.82975469999974,13.82975469999974,13.82975469999974,13.82975469999974,13.82975469999974,14.1167575999998,None,14.117014299999937,14.129652499999793,14.129652499999793,14.129652499999793,14.129652499999793,14.129652499999793,14.429744300000038,14.429744300000038,14.429744300000038,14.429744300000038,14.429744300000038,14.416740899999695,None,14.129652499999793,14.129652499999793,14.129652499999793,14.129652499999793,14.129652499999793,,,,,,,,,,500860,001,2025-03-26_15h57.44.587,Estimulo_ICE,2024.2.4,60.150846292379256,2025-03-26 15h57.48.387047 -0300,
Estimulo_7,24,24,0,2.2,-2.2,-2.2,2.2,1.99999999999999,-1.99999999999999,1.99999999999999,-1.99999999999999,None,None,,,,,0,0,0,6,,,,,,,,,,,,,,,,,,,,,,,,,0,24,24,24,,,,,,,,,,,,,,,,,,,,,14.429744300000038,,,,,,14.417109699999855,14.429744300000038,14.429744300000038,14.429744300000038,14.429744300000038,14.429744300000038,14.716806399999768,None,14.71706180000001,14.729765300000054,14.729765300000054,14.729765300000054,14.729765300000054,14.729765300000054,15.029667100000097,15.029667100000097,15.029667100000097,15.029667100000097,15.029667100000097,15.01667469999984,None,14.729765300000054,14.729765300000054,14.729765300000054,14.729765300000054,14.729765300000054,,,,,,,,,,500860,001,2025-03-26_15h57.44.587,Estimulo_ICE,2024.2.4,60.150846292379256,2025-03-26 15h57.48.387047 -0300,
Estimulo_7,25,25,0,2.2,-2.2,-2.2,2.2,1.89999999999999,-1.89999999999999,1.89999999999999,-1.89999999999999,None,None,,,,,0,0,0,6,,,,,,,,,,,,,,,,,,,,,,,,,0,25,25,25,,,,,,,,,,,,,,,,,,,,,15.029667100000097,,,,,,15.017044400000032,15.029667100000097,15.029667100000097,15.029667100000097,15.029667100000097,15.029667100000097,15.31671920000008,None,15.316976799999793,15.329663600000003,15.329663600000003,15.329663600000003,15.329663600000003,15.329663600000003,15.62972949999994,15.62972949999994,15.62972949999994,15.62972949999994,15.62972949999994,15.616865299999972,None,15.329663600000003,15.329663600000003,15.329663600000003,15.329663600000003,15.329663600000003,,,,,,,,,,500860,001,2025-03-26_15h57.44.587,Estimulo_ICE,2024.2.4,60.150846292379256,2025-03-26 15h57.48.387047 -0300,
Estimulo_7,26,26,0,2.2,-2.2,-2.2,2.2,1.79999999999999,-1.79999999999999,1.79999999999999,-1.79999999999999,None,None,,,,,0,0,0,6,,,,,,,,,,,,,,,,,,,,,,,,,0,26,26,26,,,,,,,,,,,,,,,,,,,,,15.62972949999994,,,,,,15.617242099999658,15.62972949999994,15.62972949999994,15.62972949999994,15.62972949999994,15.62972949999994,15.916655999999875,None,15.916916299999684,15.929572600000029,15.929572600000029,15.929572600000029,15.929572600000029,15.929572600000029,16.229674299999715,16.229674299999715,16.229674299999715,16.229674299999715,16.229674299999715,16.216717399999652,None,15.929572600000029,15.929572600000029,15.929572600000029,15.929572600000029,15.929572600000029,,,,,,,,,,500860,001,2025-03-26_15h57.44.587,Estimulo_ICE,2024.2.4,60.150846292379256,2025-03-26 15h57.48.387047 -0300,
Estimulo_7,27,27,0,2.2,-2.2,-2.2,2.2,1.69999999999999,-1.69999999999999,1.69999999999999,-1.69999999999999,None,None,,,,,0,0,0,6,,,,,,,,,,,,,,,,,,,,,,,,,0,27,27,27,,,,,,,,,,,,,,,,,,,,,16.229674299999715,,,,,,16.217080800000076,16.229674299999715,16.229674299999715,16.229674299999715,16.229674299999715,16.229674299999715,16.51670039999999,None,16.516954799999894,16.529654200000095,16.529654200000095,16.529654200000095,16.529654200000095,16.529654200000095,16.82979750000004,16.82979750000004,16.82979750000004,16.82979750000004,16.82979750000004,16.816781600000013,None,16.529654200000095,16.529654200000095,16.529654200000095,16.529654200000095,16.529654200000095,,,,,,,,,,500860,001,2025-03-26_15h57.44.587,Estimulo_ICE,2024.2.4,60.150846292379256,2025-03-26 15h57.48.387047 -0300,
Estimulo_7,28,28,0,2.2,-2.2,-2.2,2.2,1.59999999999999,-1.59999999999999,1.59999999999999,-1.59999999999999,None,None,,,,,0,0,0,6,,,,,,,,,,,,,,,,,,,,,,,,,0,28,28,28,,,,,,,,,,,,,,,,,,,,,16.82979750000004,,,,,,16.817146599999887,16.82979750000004,16.82979750000004,16.82979750000004,16.82979750000004,16.82979750000004,17.116729899999882,None,17.116985499999828,17.129633799999738,17.129633799999738,17.129633799999738,17.129633799999738,17.129633799999738,17.42968269999983,17.42968269999983,17.42968269999983,17.42968269999983,17.42968269999983,17.417044499999975,None,17.129633799999738,17.129633799999738,17.129633799999738,17.129633799999738,17.129633799999738,,,,,,,,,,500860,001,2025-03-26_15h57.44.587,Estimulo_ICE,2024.2.4,60.150846292379256,2025-03-26 15h57.48.387047 -0300,
Estimulo_7,29,29,0,2.2,-2.2,-2.2,2.2,1.49999999999998,-1.49999999999998,1.49999999999998,-1.49999999999998,['up'],None,[0.00634570000011081],[0.18311880000010206],,,0,0,0,6,,,,,,,,,,,,,,,,,,,,,,,,,0,29,29,29,,,,,,,,,,,,,,,,,,,,,17.42968269999983,,,,,,17.417412599999807,17.42968269999983,17.42968269999983,17.42968269999983,17.42968269999983,17.42968269999983,17.7167172999998,['up'],17.716970599999968,17.729621499999666,17.729621499999666,17.729621499999666,17.729621499999666,17.729621499999666,18.029476199999863,18.029476199999863,18.029476199999863,18.029476199999863,18.029476199999863,18.01694240000006,None,17.729621499999666,17.729621499999666,17.729621499999666,17.729621499999666,17.729621499999666,[0.00634570000011081],[0.18311880000010206],,,,,,,,500860,001,2025-03-26_15h57.44.587,Estimulo_ICE,2024.2.4,60.150846292379256,2025-03-26 15h57.48.387047 -0300,
Estimulo_7,30,30,0,2.2,-2.2,-2.2,2.2,1.39999999999998,-1.39999999999998,1.39999999999998,-1.39999999999998,None,None,,,,,0,0,0,6,,,,,,,,,,,,,,,,,,,,,,,,,0,30,30,30,,,,,,,,,,,,,,,,,,,,,18.029476199999863,,,,,,18.01733289999993,18.029476199999863,18.029476199999863,18.029476199999863,18.029476199999863,18.029476199999863,18.316789199999675,None,18.317034499999863,18.329641899999842,18.329641899999842,18.329641899999842,18.329641899999842,18.329641899999842,18.629625000000033,18.629625000000033,18.629625000000033,18.629625000000033,18.629625000000033,18.616756899999928,None,18.329641899999842,18.329641899999842,18.329641899999842,18.329641899999842,18.329641899999842,,,,,,,,,,500860,001,2025-03-26_15h57.44.587,Estimulo_ICE,2024.2.4,60.150846292379256,2025-03-26 15h57.48.387047 -0300,
Estimulo_7,31,31,0,2.2,-2.2,-2.2,2.2,1.29999999999998,-1.29999999999998,1.29999999999998,-1.29999999999998,None,None,,,,,0,0,0,6,,,,,,,,,,,,,,,,,,,,,,,,,0,31,31,31,,,,,,,,,,,,,,,,,,,,,18.629625000000033,,,,,,18.617123999999876,18.629625000000033,18.629625000000033,18.629625000000033,18.629625000000033,18.629625000000033,18.91673209999999,None,18.916988299999957,18.92964209999991,18.92964209999991,18.92964209999991,18.92964209999991,18.92964209999991,19.229736899999807,19.229736899999807,19.229736899999807,19.229736899999807,19.229736899999807,19.21678810000003,None,18.92964209999991,18.92964209999991,18.92964209999991,18.92964209999991,18.92964209999991,,,,,,,,,,500860,001,2025-03-26_15h57.44.587,Estimulo_ICE,2024.2.4,60.150846292379256,2025-03-26 15h57.48.387047 -0300,
Estimulo_7,32,32,0,2.2,-2.2,-2.2,2.2,1.19999999999998,-1.19999999999998,1.19999999999998,-1.19999999999998,['up'],None,[0.13326360000019122],[None],,,0,0,0,6,,,,,,,,,,,,,,,,,,,,,,,,,0,32,32,32,,,,,,,,,,,,,,,,,,,,,19.229736899999807,,,,,,19.21713809999983,19.229736899999807,19.229736899999807,19.229736899999807,19.229736899999807,19.229736899999807,19.516930499999944,['up'],19.517211599999882,19.529774799999814,19.529774799999814,19.529774799999814,19.529774799999814,19.529774799999814,19.829740899999706,19.829740899999706,19.829740899999706,19.829740899999706,19.829740899999706,19.81677469999977,None,19.529774799999814,19.529774799999814,19.529774799999814,19.529774799999814,19.529774799999814,[0.13326360000019122],[None],,,,,,,,500860,001,2025-03-26_15h57.44.587,Estimulo_ICE,2024.2.4,60.150846292379256,2025-03-26 15h57.48.387047 -0300,
Estimulo_7,33,33,0,2.2,-2.2,-2.2,2.2,1.09999999999998,-1.09999999999998,1.09999999999998,-1.09999999999998,None,None,,,,,0,0,0,6,,,,,,,,,,,,,,,,,,,,,,,,,0,33,33,33,,,,,,,,,,,,,,,,,,,,,19.829740899999706,,,,,,19.81714699999975,19.829740899999706,19.829740899999706,19.829740899999706,19.829740899999706,19.829740899999706,20.11680559999968,None,20.117061999999805,20.129649999999856,20.129649999999856,20.129649999999856,20.129649999999856,20.129649999999856,20.495860399999856,20.495860399999856,20.495860399999856,20.495860399999856,20.495860399999856,20.416666300000088,None,20.129649999999856,20.129649999999856,20.129649999999856,20.129649999999856,20.129649999999856,,,,,,,,,,500860,001,2025-03-26_15h57.44.587,Estimulo_ICE,2024.2.4,60.150846292379256,2025-03-26 15h57.48.387047 -0300,
Estimulo_7,0,0,0,,,,,,,,,,,,,,,0,0,0,6,,,,,,,,,,,,,,,,,,,,,,,,,,,,,,,,,,,,,,,,,,,,,,,,,,,,,,,,,,,,,,,,,,,,,,,,,,,,,,,,,,,20.48253889999978,20.495860399999856,21.933940200000052,,,,,500860,001,2025-03-26_15h57.44.587,Estimulo_ICE,2024.2.4,60.150846292379256,2025-03-26 15h57.48.387047 -0300,
Estimulo_6,0,0,0,1.1,-1.1,1.1,-1.1,2.2,-2.2,-2.2,2.2,None,None,,,,,0,1,1,5,,,,,,,,,,,,,,,,,,,,,0,0,0,0,,,,,,,,,,,,,,,,,,,,,,,,,22.02942209999992,,,,21.934138300000086,21.934661100000085,22.018111399999725,22.02942209999992,22.02942209999992,22.02942209999992,22.02942209999992,22.02942209999992,22.23374990000002,,22.234013799999957,22.24633709999989,22.24633709999989,22.24633709999989,22.24633709999989,22.24633709999989,22.546414099999765,22.546414099999765,22.546414099999765,22.546414099999765,22.546414099999765,22.533528099999785,,,,,,,,,,,,None,None,,,500860,001,2025-03-26_15h57.44.587,Estimulo_ICE,2024.2.4,60.150846292379256,2025-03-26 15h57.48.387047 -0300,
Estimulo_6,1,1,0,1.2,-1.2,1.2,-1.2,2.2,-2.2,-2.2,2.2,None,None,,,,,0,1,1,5,,,,,,,,,,,,,,,,,,,,,0,1,1,1,,,,,,,,,,,,,,,,,,,,,,,,,22.546414099999765,,,,,,22.533907,22.546414099999765,22.546414099999765,22.546414099999765,22.546414099999765,22.546414099999765,22.83348819999992,,22.833740300000045,22.846389199999976,22.846389199999976,22.846389199999976,22.846389199999976,22.846389199999976,23.146242699999675,23.146242699999675,23.146242699999675,23.146242699999675,23.146242699999675,23.13341279999986,,22.846389199999976,22.846389199999976,22.846389199999976,22.846389199999976,22.846389199999976,,,,,,None,None,,,500860,001,2025-03-26_15h57.44.587,Estimulo_ICE,2024.2.4,60.150846292379256,2025-03-26 15h57.48.387047 -0300,
Estimulo_6,2,2,0,1.3,-1.3,1.3,-1.3,2.2,-2.2,-2.2,2.2,None,None,,,,,0,1,1,5,,,,,,,,,,,,,,,,,,,,,0,2,2,2,,,,,,,,,,,,,,,,,,,,,,,,,23.146242699999675,,,,,,23.133745699999963,23.146242699999675,23.146242699999675,23.146242699999675,23.146242699999675,23.146242699999675,23.433353800000077,,23.433615800000098,23.44641079999974,23.44641079999974,23.44641079999974,23.44641079999974,23.44641079999974,23.74609169999985,23.74609169999985,23.74609169999985,23.74609169999985,23.74609169999985,23.733415899999727,,23.44641079999974,23.44641079999974,23.44641079999974,23.44641079999974,23.44641079999974,,,,,,None,None,,,500860,001,2025-03-26_15h57.44.587,Estimulo_ICE,2024.2.4,60.150846292379256,2025-03-26 15h57.48.387047 -0300,
Estimulo_6,3,3,0,1.4,-1.4,1.4,-1.4,2.2,-2.2,-2.2,2.2,None,['right'],,,[0.04501540000001114],[0.13654810000025464],0,1,1,5,,,,,,,,,,,,,,,,,,,,,0,3,3,3,,,,,,,,,,,,,,,,,,,,,,,,,23.74609169999985,,,,,,23.73378959999991,23.74609169999985,23.74609169999985,23.74609169999985,23.74609169999985,23.74609169999985,24.033369700000094,,24.03362879999986,24.046282299999802,24.046282299999802,24.046282299999802,24.046282299999802,24.046282299999802,24.346257299999706,24.346257299999706,24.346257299999706,24.346257299999706,24.346257299999706,24.333695799999987,,24.046282299999802,24.046282299999802,24.046282299999802,24.046282299999802,24.046282299999802,,,,,,None,['right'],[0.04501540000001114],[0.13654810000025464],500860,001,2025-03-26_15h57.44.587,Estimulo_ICE,2024.2.4,60.150846292379256,2025-03-26 15h57.48.387047 -0300,
Estimulo_6,4,4,0,1.5,-1.5,1.5,-1.5,2.2,-2.2,-2.2,2.2,None,None,,,,,0,1,1,5,,,,,,,,,,,,,,,,,,,,,0,4,4,4,,,,,,,,,,,,,,,,,,,,,,,,,24.346257299999706,,,,,,24.33410049999975,24.346257299999706,24.346257299999706,24.346257299999706,24.346257299999706,24.346257299999706,24.63341300000002,,24.63367279999966,24.646382899999935,24.646382899999935,24.646382899999935,24.646382899999935,24.646382899999935,24.946266099999775,24.946266099999775,24.946266099999775,24.946266099999775,24.946266099999775,24.93337369999972,,24.646382899999935,24.646382899999935,24.646382899999935,24.646382899999935,24.646382899999935,,,,,,None,None,,,500860,001,2025-03-26_15h57.44.587,Estimulo_ICE,2024.2.4,60.150846292379256,2025-03-26 15h57.48.387047 -0300,
Estimulo_6,5,5,0,1.6,-1.6,1.6,-1.6,2.2,-2.2,-2.2,2.2,None,None,,,,,0,1,1,5,,,,,,,,,,,,,,,,,,,,,0,5,5,5,,,,,,,,,,,,,,,,,,,,,,,,,24.946266099999775,,,,,,24.93375109999988,24.946266099999775,24.946266099999775,24.946266099999775,24.946266099999775,24.946266099999775,25.233400999999958,,25.233660299999883,25.24622599999975,25.24622599999975,25.24622599999975,25.24622599999975,25.24622599999975,25.546329799999967,25.546329799999967,25.546329799999967,25.546329799999967,25.546329799999967,25.533357499999966,,25.24622599999975,25.24622599999975,25.24622599999975,25.24622599999975,25.24622599999975,,,,,,None,None,,,500860,001,2025-03-26_15h57.44.587,Estimulo_ICE,2024.2.4,60.150846292379256,2025-03-26 15h57.48.387047 -0300,
Estimulo_6,6,6,0,1.7,-1.7,1.7,-1.7,2.2,-2.2,-2.2,2.2,None,None,,,,,0,1,1,5,,,,,,,,,,,,,,,,,,,,,0,6,6,6,,,,,,,,,,,,,,,,,,,,,,,,,25.546329799999967,,,,,,25.53373449999981,25.546329799999967,25.546329799999967,25.546329799999967,25.546329799999967,25.546329799999967,25.833357199999682,,25.833619999999883,25.84625499999993,25.84625499999993,25.84625499999993,25.84625499999993,25.84625499999993,26.14624969999977,26.14624969999977,26.14624969999977,26.14624969999977,26.14624969999977,26.133623100000023,,25.84625499999993,25.84625499999993,25.84625499999993,25.84625499999993,25.84625499999993,,,,,,None,None,,,500860,001,2025-03-26_15h57.44.587,Estimulo_ICE,2024.2.4,60.150846292379256,2025-03-26 15h57.48.387047 -0300,
Estimulo_6,7,7,0,1.8,-1.8,1.8,-1.8,2.2,-2.2,-2.2,2.2,None,None,,,,,0,1,1,5,,,,,,,,,,,,,,,,,,,,,0,7,7,7,,,,,,,,,,,,,,,,,,,,,,,,,26.14624969999977,,,,,,26.133998899999824,26.14624969999977,26.14624969999977,26.14624969999977,26.14624969999977,26.14624969999977,26.433367799999814,,26.433624999999665,26.44635870000002,26.44635870000002,26.44635870000002,26.44635870000002,26.44635870000002,26.746117799999865,26.746117799999865,26.746117799999865,26.746117799999865,26.746117799999865,26.733522999999877,,26.44635870000002,26.44635870000002,26.44635870000002,26.44635870000002,26.44635870000002,,,,,,None,None,,,500860,001,2025-03-26_15h57.44.587,Estimulo_ICE,2024.2.4,60.150846292379256,2025-03-26 15h57.48.387047 -0300,
Estimulo_6,8,8,0,1.9,-1.9,1.9,-1.9,2.2,-2.2,-2.2,2.2,None,None,,,,,0,1,1,5,,,,,,,,,,,,,,,,,,,,,0,8,8,8,,,,,,,,,,,,,,,,,,,,,,,,,26.746117799999865,,,,,,26.7339007999999,26.746117799999865,26.746117799999865,26.746117799999865,26.746117799999865,26.746117799999865,27.033377499999915,,27.033637799999724,27.046328099999755,27.046328099999755,27.046328099999755,27.046328099999755,27.046328099999755,27.346270199999708,27.346270199999708,27.346270199999708,27.346270199999708,27.346270199999708,27.333674099999826,,27.046328099999755,27.046328099999755,27.046328099999755,27.046328099999755,27.046328099999755,,,,,,None,None,,,500860,001,2025-03-26_15h57.44.587,Estimulo_ICE,2024.2.4,60.150846292379256,2025-03-26 15h57.48.387047 -0300,
Estimulo_6,9,9,0,2,-2,2,-2,2.2,-2.2,-2.2,2.2,None,None,,,,,0,1,1,5,,,,,,,,,,,,,,,,,,,,,0,9,9,9,,,,,,,,,,,,,,,,,,,,,,,,,27.346270199999708,,,,,,27.334037599999647,27.346270199999708,27.346270199999708,27.346270199999708,27.346270199999708,27.346270199999708,27.63339300000007,,27.63364189999993,27.646314600000096,27.646314600000096,27.646314600000096,27.646314600000096,27.646314600000096,27.94635419999986,27.94635419999986,27.94635419999986,27.94635419999986,27.94635419999986,27.93342369999982,,27.646314600000096,27.646314600000096,27.646314600000096,27.646314600000096,27.646314600000096,,,,,,None,None,,,500860,001,2025-03-26_15h57.44.587,Estimulo_ICE,2024.2.4,60.150846292379256,2025-03-26 15h57.48.387047 -0300,
Estimulo_6,10,10,0,2.1,-2.1,2.1,-2.1,2.2,-2.2,-2.2,2.2,None,None,,,,,0,1,1,5,,,,,,,,,,,,,,,,,,,,,0,10,10,10,,,,,,,,,,,,,,,,,,,,,,,,,27.94635419999986,,,,,,27.93380249999973,27.94635419999986,27.94635419999986,27.94635419999986,27.94635419999986,27.94635419999986,28.233424499999728,,28.23367989999997,28.246240099999795,28.246240099999795,28.246240099999795,28.246240099999795,28.246240099999795,28.546270999999706,28.546270999999706,28.546270999999706,28.546270999999706,28.546270999999706,28.53362560000005,,28.246240099999795,28.246240099999795,28.246240099999795,28.246240099999795,28.246240099999795,,,,,,None,None,,,500860,001,2025-03-26_15h57.44.587,Estimulo_ICE,2024.2.4,60.150846292379256,2025-03-26 15h57.48.387047 -0300,
Estimulo_6,11,11,0,2.2,-2.2,2.2,-2.2,2.2,-2.2,-2.2,2.2,None,None,,,,,0,1,1,5,,,,,,,,,,,,,,,,,,,,,0,11,11,11,,,,,,,,,,,,,,,,,,,,,,,,,28.546270999999706,,,,,,28.534002099999725,28.546270999999706,28.546270999999706,28.546270999999706,28.546270999999706,28.546270999999706,28.83331569999973,,28.833574699999645,28.846179899999697,28.846179899999697,28.846179899999697,28.846179899999697,28.846179899999697,29.14631819999977,29.14631819999977,29.14631819999977,29.14631819999977,29.14631819999977,29.133405199999743,,28.846179899999697,28.846179899999697,28.846179899999697,28.846179899999697,28.846179899999697,,,,,,None,None,,,500860,001,2025-03-26_15h57.44.587,Estimulo_ICE,2024.2.4,60.150846292379256,2025-03-26 15h57.48.387047 -0300,
Estimulo_6,12,12,0,2.3,-2.3,2.3,-2.3,2.2,-2.2,-2.2,2.2,None,None,,,,,0,1,1,5,,,,,,,,,,,,,,,,,,,,,0,12,12,12,,,,,,,,,,,,,,,,,,,,,,,,,29.14631819999977,,,,,,29.13376769999968,29.14631819999977,29.14631819999977,29.14631819999977,29.14631819999977,29.14631819999977,29.433373299999857,,29.43363249999993,29.446288899999672,29.446288899999672,29.446288899999672,29.446288899999672,29.446288899999672,29.74606939999967,29.74606939999967,29.74606939999967,29.74606939999967,29.74606939999967,29.733611099999962,,29.446288899999672,29.446288899999672,29.446288899999672,29.446288899999672,29.446288899999672,,,,,,None,None,,,500860,001,2025-03-26_15h57.44.587,Estimulo_ICE,2024.2.4,60.150846292379256,2025-03-26 15h57.48.387047 -0300,
Estimulo_6,13,13,0,2.4,-2.4,2.4,-2.4,2.2,-2.2,-2.2,2.2,None,None,,,,,0,1,1,5,,,,,,,,,,,,,,,,,,,,,0,13,13,13,,,,,,,,,,,,,,,,,,,,,,,,,29.74606939999967,,,,,,29.733983599999647,29.74606939999967,29.74606939999967,29.74606939999967,29.74606939999967,29.74606939999967,30.033804599999712,,30.03406159999986,30.046303499999794,30.046303499999794,30.046303499999794,30.046303499999794,30.046303499999794,30.346260699999675,30.346260699999675,30.346260699999675,30.346260699999675,30.346260699999675,30.333380399999896,,30.046303499999794,30.046303499999794,30.046303499999794,30.046303499999794,30.046303499999794,,,,,,None,None,,,500860,001,2025-03-26_15h57.44.587,Estimulo_ICE,2024.2.4,60.150846292379256,2025-03-26 15h57.48.387047 -0300,
Estimulo_6,14,14,0,2.5,-2.5,2.5,-2.5,2.2,-2.2,-2.2,2.2,None,None,,,,,0,1,1,5,,,,,,,,,,,,,,,,,,,,,0,14,14,14,,,,,,,,,,,,,,,,,,,,,,,,,30.346260699999675,,,,,,30.33373739999979,30.346260699999675,30.346260699999675,30.346260699999675,30.346260699999675,30.346260699999675,30.63332730000002,,30.63358429999971,30.646234299999833,30.646234299999833,30.646234299999833,30.646234299999833,30.646234299999833,30.946254499999668,30.946254499999668,30.946254499999668,30.946254499999668,30.946254499999668,30.93366500000002,,30.646234299999833,30.646234299999833,30.646234299999833,30.646234299999833,30.646234299999833,,,,,,None,None,,,500860,001,2025-03-26_15h57.44.587,Estimulo_ICE,2024.2.4,60.150846292379256,2025-03-26 15h57.48.387047 -0300,
Estimulo_6,15,15,0,2.6,-2.6,2.6,-2.6,2.2,-2.2,-2.2,2.2,None,None,,,,,0,1,1,5,,,,,,,,,,,,,,,,,,,,,0,15,15,15,,,,,,,,,,,,,,,,,,,,,,,,,30.946254499999668,,,,,,30.934044899999662,30.946254499999668,30.946254499999668,30.946254499999668,30.946254499999668,30.946254499999668,31.233330699999897,,31.23358909999979,31.246310600000015,31.246310600000015,31.246310600000015,31.246310600000015,31.246310600000015,31.546255400000064,31.546255400000064,31.546255400000064,31.546255400000064,31.546255400000064,31.533389299999726,,31.246310600000015,31.246310600000015,31.246310600000015,31.246310600000015,31.246310600000015,,,,,,None,None,,,500860,001,2025-03-26_15h57.44.587,Estimulo_ICE,2024.2.4,60.150846292379256,2025-03-26 15h57.48.387047 -0300,
Estimulo_6,16,16,0,2.7,-2.7,2.7,-2.7,2.2,-2.2,-2.2,2.2,None,None,,,,,0,1,1,5,,,,,,,,,,,,,,,,,,,,,0,16,16,16,,,,,,,,,,,,,,,,,,,,,,,,,31.546255400000064,,,,,,31.533768599999803,31.546255400000064,31.546255400000064,31.546255400000064,31.546255400000064,31.546255400000064,31.833303200000046,,31.833563799999865,31.846252699999695,31.846252699999695,31.846252699999695,31.846252699999695,31.846252699999695,32.14635670000007,32.14635670000007,32.14635670000007,32.14635670000007,32.14635670000007,32.133634699999675,,31.846252699999695,31.846252699999695,31.846252699999695,31.846252699999695,31.846252699999695,,,,,,None,None,,,500860,001,2025-03-26_15h57.44.587,Estimulo_ICE,2024.2.4,60.150846292379256,2025-03-26 15h57.48.387047 -0300,
,17,17,0,2.8,-2.8,2.8,-2.8,2.2,-2.2,-2.2,2.2,,,,,,,,,,,,,,,,,,,,,,,,,,,,,,,0,17,17,17,,,,,,,,,,,,,,,,,,,,,,,,,32.14635670000007,,,,,,32.13400929999989,32.14635670000007,32.14635670000007,32.14635670000007,32.14635670000007,32.14635670000007,32.43360329999996,,32.433862099999715,32.44609169999967,32.44609169999967,32.44609169999967,32.44609169999967,32.44609169999967,,,,,,,,32.44609169999967,32.44609169999967,32.44609169999967,32.44609169999967,32.44609169999967,,,,,,None,,,,,,,,,,,
