LoopName,thisN,thisTrialN,thisRepN,px1,px2,px3,px4,py1,py2,py3,py4,MainLoop.thisRepN,MainLoop.thisTrialN,MainLoop.thisN,MainLoop.thisIndex,loop_1.thisRepN,loop_1.thisTrialN,loop_1.thisN,loop_1.thisIndex,loop_2.thisRepN,loop_2.thisTrialN,loop_2.thisN,loop_2.thisIndex,loop_3.thisRepN,loop_3.thisTrialN,loop_3.thisN,loop_3.thisIndex,loop_4.thisRepN,loop_4.thisTrialN,loop_4.thisN,loop_4.thisIndex,loop_5.thisRepN,loop_5.thisTrialN,loop_5.thisN,loop_5.thisIndex,loop_6.thisRepN,loop_6.thisTrialN,loop_6.thisN,loop_6.thisIndex,loop_7.thisRepN,loop_7.thisTrialN,loop_7.thisN,loop_7.thisIndex,loop_8.thisRepN,loop_8.thisTrialN,loop_8.thisN,loop_8.thisIndex,loop_9.thisRepN,loop_9.thisTrialN,loop_9.thisN,loop_9.thisIndex,loop_10.thisRepN,loop_10.thisTrialN,loop_10.thisN,loop_10.thisIndex,loop_11.thisRepN,loop_11.thisTrialN,loop_11.thisN,loop_11.thisIndex,loop_12.thisRepN,loop_12.thisTrialN,loop_12.thisN,loop_12.thisIndex,thisRow.t,notes,codigo.started,codigo.stopped,trial_5.started,image_9.started,image_10.started,polygon_6.started,trial_5.stopped,trial_6.started,image_11.started,image_12.started,polygon_7.started,trial_6.stopped,_intertrial_interval_.started,polygon_5.started,_intertrial_interval_.stopped,trial_3.started,image_5.started,image_6.started,polygon_3.started,trial_3.stopped,trial_4.started,image_7.started,image_8.started,polygon_4.started,image_7.stopped,image_8.stopped,polygon_4.stopped,trial_4.stopped,image_5.stopped,image_6.stopped,polygon_3.stopped,participant,session,date,expName,psychopyVersion,frameRate,expStart,
Estimulo_11,0,0,0,2.2,-2.2,-2.2,2.2,1.19999999999998,-1.19999999999998,1.19999999999998,-1.19999999999998,0,0,0,10,,,,,,,,,,,,,,,,,,,,,,,,,,,,,,,,,,,,,,,,,0,0,0,32,,,,,0.16243549999990137,,0.02043340000000171,0.02073870000003808,0.15142160000004878,0.16243549999990137,0.16243549999990137,0.16243549999990137,0.33103970000001937,0.33125079999990703,0.3452412000001459,0.3452412000001459,0.3452412000001459,0.6308770999999069,,,,,,,,,,,,,,,,,,,,632199,001,2025-03-17_14h38.39.233,Estimulo_ICE,2024.2.4,59.924554985130385,2025-03-17 14h38.44.546313 -0300,
Estimulo_11,1,1,0,2.2,-2.2,-2.2,2.2,3.9,-3.9,3.9,-3.9,0,0,0,10,,,,,,,,,,,,,,,,,,,,,,,,,,,,,,,,,,,,,,,,,0,1,1,5,,,,,0.6451741999999285,,,,0.6312222000001384,0.6451741999999285,0.6451741999999285,0.6451741999999285,0.9357028999997965,0.9362366999998812,0.9469309999999496,0.9469309999999496,0.9469309999999496,1.235350599999947,,,,,,,,,,,,,,,,,,,,632199,001,2025-03-17_14h38.39.233,Estimulo_ICE,2024.2.4,59.924554985130385,2025-03-17 14h38.44.546313 -0300,
Estimulo_11,2,2,0,2.2,-2.2,-2.2,2.2,1.89999999999999,-1.89999999999999,1.89999999999999,-1.89999999999999,0,0,0,10,,,,,,,,,,,,,,,,,,,,,,,,,,,,,,,,,,,,,,,,,0,2,2,25,,,,,1.2469293999997717,,,,1.2361301999999341,1.2469293999997717,1.2469293999997717,1.2469293999997717,1.5324359999999615,1.5327965000001313,1.545984999999746,1.545984999999746,1.545984999999746,1.8309872999998333,,,,,,,,,,,,,,,,,,,,632199,001,2025-03-17_14h38.39.233,Estimulo_ICE,2024.2.4,59.924554985130385,2025-03-17 14h38.44.546313 -0300,
Estimulo_11,3,3,0,2.2,-2.2,-2.2,2.2,3.09999999999999,-3.09999999999999,3.09999999999999,-3.09999999999999,0,0,0,10,,,,,,,,,,,,,,,,,,,,,,,,,,,,,,,,,,,,,,,,,0,3,3,13,,,,,1.845419100000072,,,,1.8313355999998748,1.845419100000072,1.845419100000072,1.845419100000072,2.1310012999997525,2.1312480999999934,2.1453013999998802,2.1453013999998802,2.1453013999998802,2.430945099999917,,,,,,,,,,,,,,,,,,,,632199,001,2025-03-17_14h38.39.233,Estimulo_ICE,2024.2.4,59.924554985130385,2025-03-17 14h38.44.546313 -0300,
Estimulo_11,4,4,0,2.2,-2.2,-2.2,2.2,2.19999999999999,-2.19999999999999,2.19999999999999,-2.19999999999999,0,0,0,10,,,,,,,,,,,,,,,,,,,,,,,,,,,,,,,,,,,,,,,,,0,4,4,22,,,,,2.445437800000036,,,,2.4312964000000648,2.445437800000036,2.445437800000036,2.445437800000036,2.7321774000001824,2.732499299999745,2.7458001999998487,2.7458001999998487,2.7458001999998487,3.0308952000000318,,,,,,,,,,,,,,,,,,,,632199,001,2025-03-17_14h38.39.233,Estimulo_ICE,2024.2.4,59.924554985130385,2025-03-17 14h38.44.546313 -0300,
Estimulo_11,5,5,0,2.2,-2.2,-2.2,2.2,3.29999999999999,-3.29999999999999,3.29999999999999,-3.29999999999999,0,0,0,10,,,,,,,,,,,,,,,,,,,,,,,,,,,,,,,,,,,,,,,,,0,5,5,11,,,,,3.045427699999891,,,,3.031235800000104,3.045427699999891,3.045427699999891,3.045427699999891,3.3310397999998713,3.3312686999997823,3.34533539999984,3.34533539999984,3.34533539999984,3.630998300000101,,,,,,,,,,,,,,,,,,,,632199,001,2025-03-17_14h38.39.233,Estimulo_ICE,2024.2.4,59.924554985130385,2025-03-17 14h38.44.546313 -0300,
Estimulo_11,6,6,0,2.2,-2.2,-2.2,2.2,2.09999999999999,-2.09999999999999,2.09999999999999,-2.09999999999999,0,0,0,10,,,,,,,,,,,,,,,,,,,,,,,,,,,,,,,,,,,,,,,,,0,6,6,23,,,,,3.645417599999746,,,,3.6313512000001538,3.645417599999746,3.645417599999746,3.645417599999746,3.9308987999997953,3.9311296000000766,3.945410400000128,3.945410400000128,3.945410400000128,4.230832199999895,,,,,,,,,,,,,,,,,,,,632199,001,2025-03-17_14h38.39.233,Estimulo_ICE,2024.2.4,59.924554985130385,2025-03-17 14h38.44.546313 -0300,
Estimulo_11,7,7,0,2.2,-2.2,-2.2,2.2,3.8,-3.8,3.8,-3.8,0,0,0,10,,,,,,,,,,,,,,,,,,,,,,,,,,,,,,,,,,,,,,,,,0,7,7,6,,,,,4.245442299999922,,,,4.231174300000021,4.245442299999922,4.245442299999922,4.245442299999922,4.5309330999998565,4.531167099999948,4.545261100000062,4.545261100000062,4.545261100000062,4.830761300000177,,,,,,,,,,,,,,,,,,,,632199,001,2025-03-17_14h38.39.233,Estimulo_ICE,2024.2.4,59.924554985130385,2025-03-17 14h38.44.546313 -0300,
Estimulo_11,8,8,0,2.2,-2.2,-2.2,2.2,2.29999999999999,-2.29999999999999,2.29999999999999,-2.29999999999999,0,0,0,10,,,,,,,,,,,,,,,,,,,,,,,,,,,,,,,,,,,,,,,,,0,8,8,21,,,,,4.845399499999985,,,,4.831088299999919,4.845399499999985,4.845399499999985,4.845399499999985,5.131203399999777,5.131431799999973,5.145214799999849,5.145214799999849,5.145214799999849,5.43104749999975,,,,,,,,,,,,,,,,,,,,632199,001,2025-03-17_14h38.39.233,Estimulo_ICE,2024.2.4,59.924554985130385,2025-03-17 14h38.44.546313 -0300,
Estimulo_11,9,9,0,2.2,-2.2,-2.2,2.2,2.99999999999999,-2.99999999999999,2.99999999999999,-2.99999999999999,0,0,0,10,,,,,,,,,,,,,,,,,,,,,,,,,,,,,,,,,,,,,,,,,0,9,9,14,,,,,5.44524790000014,,,,5.431371300000137,5.44524790000014,5.44524790000014,5.44524790000014,5.730897399999776,5.731114199999865,5.74534390000008,5.74534390000008,5.74534390000008,6.030829899999844,,,,,,,,,,,,,,,,,,,,632199,001,2025-03-17_14h38.39.233,Estimulo_ICE,2024.2.4,59.924554985130385,2025-03-17 14h38.44.546313 -0300,
Estimulo_11,10,10,0,2.2,-2.2,-2.2,2.2,3.7,-3.7,3.7,-3.7,0,0,0,10,,,,,,,,,,,,,,,,,,,,,,,,,,,,,,,,,,,,,,,,,0,10,10,7,,,,,6.045259299999998,,,,6.031155499999841,6.045259299999998,6.045259299999998,6.045259299999998,6.331293000000187,6.331556600000113,6.345386099999814,6.345386099999814,6.345386099999814,6.630728900000122,,,,,,,,,,,,,,,,,,,,632199,001,2025-03-17_14h38.39.233,Estimulo_ICE,2024.2.4,59.924554985130385,2025-03-17 14h38.44.546313 -0300,
Estimulo_11,11,11,0,2.2,-2.2,-2.2,2.2,3.39999999999999,-3.39999999999999,3.39999999999999,-3.39999999999999,0,0,0,10,,,,,,,,,,,,,,,,,,,,,,,,,,,,,,,,,,,,,,,,,0,11,11,10,,,,,6.645406699999967,,,,6.63105510000014,6.645406699999967,6.645406699999967,6.645406699999967,6.931039900000087,6.931271699999797,6.945241500000066,6.945241500000066,6.945241500000066,7.230730199999925,,,,,,,,,,,,,,,,,,,,632199,001,2025-03-17_14h38.39.233,Estimulo_ICE,2024.2.4,59.924554985130385,2025-03-17 14h38.44.546313 -0300,
Estimulo_11,12,12,0,2.2,-2.2,-2.2,2.2,1.79999999999999,-1.79999999999999,1.79999999999999,-1.79999999999999,0,0,0,10,,,,,,,,,,,,,,,,,,,,,,,,,,,,,,,,,,,,,,,,,0,12,12,26,,,,,7.245247400000153,,,,7.231049299999995,7.245247400000153,7.245247400000153,7.245247400000153,7.531064299999798,7.531286500000078,7.545327599999837,7.545327599999837,7.545327599999837,7.8308225000000675,,,,,,,,,,,,,,,,,,,,632199,001,2025-03-17_14h38.39.233,Estimulo_ICE,2024.2.4,59.924554985130385,2025-03-17 14h38.44.546313 -0300,
Estimulo_11,13,13,0,2.2,-2.2,-2.2,2.2,2.39999999999999,-2.39999999999999,2.39999999999999,-2.39999999999999,0,0,0,10,,,,,,,,,,,,,,,,,,,,,,,,,,,,,,,,,,,,,,,,,0,13,13,20,,,,,7.845386699999835,,,,7.831163899999865,7.845386699999835,7.845386699999835,7.845386699999835,8.136015799999768,8.136588299999858,8.146938299999874,8.146938299999874,8.146938299999874,8.439412100000027,,,,,,,,,,,,,,,,,,,,632199,001,2025-03-17_14h38.39.233,Estimulo_ICE,2024.2.4,59.924554985130385,2025-03-17 14h38.44.546313 -0300,
Estimulo_11,14,14,0,2.2,-2.2,-2.2,2.2,2.89999999999999,-2.89999999999999,2.89999999999999,-2.89999999999999,0,0,0,10,,,,,,,,,,,,,,,,,,,,,,,,,,,,,,,,,,,,,,,,,0,14,14,15,,,,,8.461610100000144,,,,8.440832599999794,8.461610100000144,8.461610100000144,8.461610100000144,8.730777100000068,8.731011200000012,8.74536339999986,8.74536339999986,8.74536339999986,9.03090710000015,,,,,,,,,,,,,,,,,,,,632199,001,2025-03-17_14h38.39.233,Estimulo_ICE,2024.2.4,59.924554985130385,2025-03-17 14h38.44.546313 -0300,
Estimulo_11,15,15,0,2.2,-2.2,-2.2,2.2,2.49999999999999,-2.49999999999999,2.49999999999999,-2.49999999999999,0,0,0,10,,,,,,,,,,,,,,,,,,,,,,,,,,,,,,,,,,,,,,,,,0,15,15,19,,,,,9.045339199999944,,,,9.031248799999958,9.045339199999944,9.045339199999944,9.045339199999944,9.330926699999964,9.331157600000097,9.34522509999988,9.34522509999988,9.34522509999988,9.63075179999987,,,,,,,,,,,,,,,,,,,,632199,001,2025-03-17_14h38.39.233,Estimulo_ICE,2024.2.4,59.924554985130385,2025-03-17 14h38.44.546313 -0300,
Estimulo_11,16,16,0,2.2,-2.2,-2.2,2.2,4.3,-4.3,4.3,-4.3,0,0,0,10,,,,,,,,,,,,,,,,,,,,,,,,,,,,,,,,,,,,,,,,,0,16,16,1,,,,,9.64544769999975,,,,9.631092300000091,9.64544769999975,9.64544769999975,9.64544769999975,9.93094259999998,9.931174800000008,9.945277400000123,9.945277400000123,9.945277400000123,10.23092910000014,,,,,,,,,,,,,,,,,,,,632199,001,2025-03-17_14h38.39.233,Estimulo_ICE,2024.2.4,59.924554985130385,2025-03-17 14h38.44.546313 -0300,
Estimulo_11,17,17,0,2.2,-2.2,-2.2,2.2,1.39999999999998,-1.39999999999998,1.39999999999998,-1.39999999999998,0,0,0,10,,,,,,,,,,,,,,,,,,,,,,,,,,,,,,,,,,,,,,,,,0,17,17,30,,,,,10.24531509999997,,,,10.231272600000011,10.24531509999997,10.24531509999997,10.24531509999997,10.531897200000003,10.532147099999747,10.546242299999903,10.546242299999903,10.546242299999903,10.830868099999861,,,,,,,,,,,,,,,,,,,,632199,001,2025-03-17_14h38.39.233,Estimulo_ICE,2024.2.4,59.924554985130385,2025-03-17 14h38.44.546313 -0300,
Estimulo_11,18,18,0,2.2,-2.2,-2.2,2.2,1.29999999999998,-1.29999999999998,1.29999999999998,-1.29999999999998,0,0,0,10,,,,,,,,,,,,,,,,,,,,,,,,,,,,,,,,,,,,,,,,,0,18,18,31,,,,,10.845285800000056,,,,10.831208699999934,10.845285800000056,10.845285800000056,10.845285800000056,11.130652299999838,11.130885600000056,11.145187300000089,11.145187300000089,11.145187300000089,11.430889299999762,,,,,,,,,,,,,,,,,,,,632199,001,2025-03-17_14h38.39.233,Estimulo_ICE,2024.2.4,59.924554985130385,2025-03-17 14h38.44.546313 -0300,
Estimulo_11,19,19,0,2.2,-2.2,-2.2,2.2,2.69999999999999,-2.69999999999999,2.69999999999999,-2.69999999999999,0,0,0,10,,,,,,,,,,,,,,,,,,,,,,,,,,,,,,,,,,,,,,,,,0,19,19,17,,,,,11.44530799999984,,,,11.431235500000184,11.44530799999984,11.44530799999984,11.44530799999984,11.730999299999894,11.731240799999796,11.74542029999975,11.74542029999975,11.74542029999975,12.030809800000043,,,,,,,,,,,,,,,,,,,,632199,001,2025-03-17_14h38.39.233,Estimulo_ICE,2024.2.4,59.924554985130385,2025-03-17 14h38.44.546313 -0300,
Estimulo_11,20,20,0,2.2,-2.2,-2.2,2.2,3.19999999999999,-3.19999999999999,3.19999999999999,-3.19999999999999,0,0,0,10,,,,,,,,,,,,,,,,,,,,,,,,,,,,,,,,,,,,,,,,,0,20,20,12,,,,,12.045327499999985,,,,12.031153899999936,12.045327499999985,12.045327499999985,12.045327499999985,12.330931599999985,12.331163599999854,12.345162900000105,12.345162900000105,12.345162900000105,12.630722500000047,,,,,,,,,,,,,,,,,,,,632199,001,2025-03-17_14h38.39.233,Estimulo_ICE,2024.2.4,59.924554985130385,2025-03-17 14h38.44.546313 -0300,
Estimulo_11,21,21,0,2.2,-2.2,-2.2,2.2,2.79999999999999,-2.79999999999999,2.79999999999999,-2.79999999999999,0,0,0,10,,,,,,,,,,,,,,,,,,,,,,,,,,,,,,,,,,,,,,,,,0,21,21,16,,,,,12.645310100000188,,,,12.631065600000056,12.645310100000188,12.645310100000188,12.645310100000188,12.930759299999863,12.930989999999838,12.945363100000122,12.945363100000122,12.945363100000122,13.230902799999967,,,,,,,,,,,,,,,,,,,,632199,001,2025-03-17_14h38.39.233,Estimulo_ICE,2024.2.4,59.924554985130385,2025-03-17 14h38.44.546313 -0300,
Estimulo_11,22,22,0,2.2,-2.2,-2.2,2.2,2.59999999999999,-2.59999999999999,2.59999999999999,-2.59999999999999,0,0,0,10,,,,,,,,,,,,,,,,,,,,,,,,,,,,,,,,,,,,,,,,,0,22,22,18,,,,,13.245334000000184,,,,13.231247300000177,13.245334000000184,13.245334000000184,13.245334000000184,13.530847999999878,13.531077699999969,13.545397299999877,13.545397299999877,13.545397299999877,13.836597399999846,,,,,,,,,,,,,,,,,,,,632199,001,2025-03-17_14h38.39.233,Estimulo_ICE,2024.2.4,59.924554985130385,2025-03-17 14h38.44.546313 -0300,
Estimulo_11,23,23,0,2.2,-2.2,-2.2,2.2,1.59999999999999,-1.59999999999999,1.59999999999999,-1.59999999999999,0,0,0,10,,,,,,,,,,,,,,,,,,,,,,,,,,,,,,,,,,,,,,,,,0,23,23,28,,,,,13.847122099999979,,,,13.837521200000083,13.847122099999979,13.847122099999979,13.847122099999979,14.133001199999853,14.133399400000144,14.146126099999947,14.146126099999947,14.146126099999947,14.433389299999817,,,,,,,,,,,,,,,,,,,,632199,001,2025-03-17_14h38.39.233,Estimulo_ICE,2024.2.4,59.924554985130385,2025-03-17 14h38.44.546313 -0300,
Estimulo_11,24,24,0,2.2,-2.2,-2.2,2.2,4.2,-4.2,4.2,-4.2,0,0,0,10,,,,,,,,,,,,,,,,,,,,,,,,,,,,,,,,,,,,,,,,,0,24,24,2,,,,,14.445914999999786,,,,14.434031400000094,14.445914999999786,14.445914999999786,14.445914999999786,14.738146400000005,14.73893739999994,14.746944900000017,14.746944900000017,14.746944900000017,15.030856700000186,,,,,,,,,,,,,,,,,,,,632199,001,2025-03-17_14h38.39.233,Estimulo_ICE,2024.2.4,59.924554985130385,2025-03-17 14h38.44.546313 -0300,
Estimulo_11,25,25,0,2.2,-2.2,-2.2,2.2,1.99999999999999,-1.99999999999999,1.99999999999999,-1.99999999999999,0,0,0,10,,,,,,,,,,,,,,,,,,,,,,,,,,,,,,,,,,,,,,,,,0,25,25,24,,,,,15.045292400000108,,,,15.031197599999814,15.045292400000108,15.045292400000108,15.045292400000108,15.33087660000001,15.331107200000133,15.345215700000153,15.345215700000153,15.345215700000153,15.630906800000048,,,,,,,,,,,,,,,,,,,,632199,001,2025-03-17_14h38.39.233,Estimulo_ICE,2024.2.4,59.924554985130385,2025-03-17 14h38.44.546313 -0300,
Estimulo_11,26,26,0,2.2,-2.2,-2.2,2.2,3.5,-3.5,3.5,-3.5,0,0,0,10,,,,,,,,,,,,,,,,,,,,,,,,,,,,,,,,,,,,,,,,,0,26,26,9,,,,,15.645270600000003,,,,15.631251599999814,15.645270600000003,15.645270600000003,15.645270600000003,15.93084829999998,15.931080500000007,15.945298300000104,15.945298300000104,15.945298300000104,16.23070409999991,,,,,,,,,,,,,,,,,,,,632199,001,2025-03-17_14h38.39.233,Estimulo_ICE,2024.2.4,59.924554985130385,2025-03-17 14h38.44.546313 -0300,
Estimulo_11,27,27,0,2.2,-2.2,-2.2,2.2,1.49999999999998,-1.49999999999998,1.49999999999998,-1.49999999999998,0,0,0,10,,,,,,,,,,,,,,,,,,,,,,,,,,,,,,,,,,,,,,,,,0,27,27,29,,,,,16.245374600000105,,,,16.231044699999984,16.245374600000105,16.245374600000105,16.245374600000105,16.536726400000134,16.537344700000176,16.547174799999993,16.547174799999993,16.547174799999993,16.831176700000015,,,,,,,,,,,,,,,,,,,,632199,001,2025-03-17_14h38.39.233,Estimulo_ICE,2024.2.4,59.924554985130385,2025-03-17 14h38.44.546313 -0300,
Estimulo_11,28,28,0,2.2,-2.2,-2.2,2.2,4,-4,4,-4,0,0,0,10,,,,,,,,,,,,,,,,,,,,,,,,,,,,,,,,,,,,,,,,,0,28,28,4,,,,,16.845446100000117,,,,16.831575799999882,16.845446100000117,16.845446100000117,16.845446100000117,17.131209000000126,17.13148060000003,17.14544049999995,17.14544049999995,17.14544049999995,17.432933799999773,,,,,,,,,,,,,,,,,,,,632199,001,2025-03-17_14h38.39.233,Estimulo_ICE,2024.2.4,59.924554985130385,2025-03-17 14h38.44.546313 -0300,
Estimulo_11,29,29,0,2.2,-2.2,-2.2,2.2,4.1,-4.1,4.1,-4.1,0,0,0,10,,,,,,,,,,,,,,,,,,,,,,,,,,,,,,,,,,,,,,,,,0,29,29,3,,,,,17.445505499999854,,,,17.433571999999913,17.445505499999854,17.445505499999854,17.445505499999854,17.733648099999755,17.73406819999991,17.746093799999926,17.746093799999926,17.746093799999926,18.033458699999755,,,,,,,,,,,,,,,,,,,,632199,001,2025-03-17_14h38.39.233,Estimulo_ICE,2024.2.4,59.924554985130385,2025-03-17 14h38.44.546313 -0300,
Estimulo_11,30,30,0,2.2,-2.2,-2.2,2.2,1.09999999999998,-1.09999999999998,1.09999999999998,-1.09999999999998,0,0,0,10,,,,,,,,,,,,,,,,,,,,,,,,,,,,,,,,,,,,,,,,,0,30,30,33,,,,,18.046108699999877,,,,18.034076299999924,18.046108699999877,18.046108699999877,18.046108699999877,18.33147830000007,18.331757500000094,18.345566999999846,18.345566999999846,18.345566999999846,18.631476699999894,,,,,,,,,,,,,,,,,,,,632199,001,2025-03-17_14h38.39.233,Estimulo_ICE,2024.2.4,59.924554985130385,2025-03-17 14h38.44.546313 -0300,
Estimulo_11,31,31,0,2.2,-2.2,-2.2,2.2,4.4,-4.4,4.4,-4.4,0,0,0,10,,,,,,,,,,,,,,,,,,,,,,,,,,,,,,,,,,,,,,,,,0,31,31,0,,,,,18.645459200000005,,,,18.63189289999991,18.645459200000005,18.645459200000005,18.645459200000005,18.933930600000167,18.934374099999786,18.946177799999987,18.946177799999987,18.946177799999987,19.231467600000087,,,,,,,,,,,,,,,,,,,,632199,001,2025-03-17_14h38.39.233,Estimulo_ICE,2024.2.4,59.924554985130385,2025-03-17 14h38.44.546313 -0300,
Estimulo_11,32,32,0,2.2,-2.2,-2.2,2.2,3.6,-3.6,3.6,-3.6,0,0,0,10,,,,,,,,,,,,,,,,,,,,,,,,,,,,,,,,,,,,,,,,,0,32,32,8,,,,,19.245357400000103,,,,19.23190139999997,19.245357400000103,19.245357400000103,19.245357400000103,19.53080540000019,19.531039500000134,19.545303299999887,19.545303299999887,19.545303299999887,19.831626499999857,,,,,,,,,,,,,,,,,,,,632199,001,2025-03-17_14h38.39.233,Estimulo_ICE,2024.2.4,59.924554985130385,2025-03-17 14h38.44.546313 -0300,
Estimulo_11,33,33,0,2.2,-2.2,-2.2,2.2,1.69999999999999,-1.69999999999999,1.69999999999999,-1.69999999999999,0,0,0,10,,,,,,,,,,,,,,,,,,,,,,,,,,,,,,,,,,,,,,,,,0,33,33,27,,,,,19.84538939999993,,,,19.832039500000064,19.84538939999993,19.84538939999993,19.84538939999993,20.135238800000025,20.135769099999834,20.146721900000102,20.146721900000102,20.146721900000102,20.436828100000184,,,,,,,,,,,,,,,,,,,,632199,001,2025-03-17_14h38.39.233,Estimulo_ICE,2024.2.4,59.924554985130385,2025-03-17 14h38.44.546313 -0300,
Estimulo_11,0,0,0,,,,,,,,,0,0,0,10,,,,,,,,,,,,,,,,,,,,,,,,,,,,,,,,,,,,,,,,,,,,,,,,,,,,,,,,,,,,,,,20.470151200000146,20.478483699999742,20.935008200000084,,,,,,,,,,,,,,,,,632199,001,2025-03-17_14h38.39.233,Estimulo_ICE,2024.2.4,59.924554985130385,2025-03-17 14h38.44.546313 -0300,
Estimulo_5,0,0,0,4.4,-4.4,4.4,-4.4,2.2,-2.2,-2.2,2.2,0,1,1,4,,,,,,,,,,,,,,,,,0,0,0,0,,,,,,,,,,,,,,,,,,,,,,,,,,,,,21.028136800000084,,20.935238200000185,20.93593299999975,,,,,,,,,,,,,,21.011114599999928,21.028136800000084,21.028136800000084,21.028136800000084,21.23134489999984,21.23157910000009,21.24538900000016,21.24538900000016,21.24538900000016,21.545269199999893,21.545269199999893,21.545269199999893,21.531156999999894,,,,632199,001,2025-03-17_14h38.39.233,Estimulo_ICE,2024.2.4,59.924554985130385,2025-03-17 14h38.44.546313 -0300,
Estimulo_5,1,1,0,4.3,-4.3,4.3,-4.3,2.2,-2.2,-2.2,2.2,0,1,1,4,,,,,,,,,,,,,,,,,0,1,1,1,,,,,,,,,,,,,,,,,,,,,,,,,,,,,21.545269199999893,,,,,,,,,,,,,,,,,21.53151149999985,21.545269199999893,21.545269199999893,21.545269199999893,21.833900600000106,21.83430219999991,21.845904599999812,21.845904599999812,21.845904599999812,22.145908599999984,22.145908599999984,22.145908599999984,22.133112500000152,21.845904599999812,21.845904599999812,21.845904599999812,632199,001,2025-03-17_14h38.39.233,Estimulo_ICE,2024.2.4,59.924554985130385,2025-03-17 14h38.44.546313 -0300,
Estimulo_5,2,2,0,4.2,-4.2,4.2,-4.2,2.2,-2.2,-2.2,2.2,0,1,1,4,,,,,,,,,,,,,,,,,0,2,2,2,,,,,,,,,,,,,,,,,,,,,,,,,,,,,22.145908599999984,,,,,,,,,,,,,,,,,22.133691200000158,22.145908599999984,22.145908599999984,22.145908599999984,22.432026399999813,22.432284099999833,22.44529160000002,22.44529160000002,22.44529160000002,22.74520990000019,22.74520990000019,22.74520990000019,22.73145169999998,22.44529160000002,22.44529160000002,22.44529160000002,632199,001,2025-03-17_14h38.39.233,Estimulo_ICE,2024.2.4,59.924554985130385,2025-03-17 14h38.44.546313 -0300,
Estimulo_5,3,3,0,4.1,-4.1,4.1,-4.1,2.2,-2.2,-2.2,2.2,0,1,1,4,,,,,,,,,,,,,,,,,0,3,3,3,,,,,,,,,,,,,,,,,,,,,,,,,,,,,22.74520990000019,,,,,,,,,,,,,,,,,22.731810100000075,22.74520990000019,22.74520990000019,22.74520990000019,23.036276299999827,23.036905800000113,23.047242000000097,23.047242000000097,23.047242000000097,,,,23.336355800000092,,,,632199,001,2025-03-17_14h38.39.233,Estimulo_ICE,2024.2.4,59.924554985130385,2025-03-17 14h38.44.546313 -0300,
Estimulo_5,4,4,0,4,-4,4,-4,2.2,-2.2,-2.2,2.2,0,1,1,4,,,,,,,,,,,,,,,,,0,4,4,4,,,,,,,,,,,,,,,,,,,,,,,,,,,,,23.347029699999894,,,,,,,,,,,,,,,,,23.337282200000118,23.347029699999894,23.347029699999894,23.347029699999894,23.633925499999805,23.634361500000068,23.645982300000014,23.645982300000014,23.645982300000014,23.945351899999878,23.945351899999878,23.945351899999878,23.931463699999767,23.645982300000014,23.645982300000014,23.645982300000014,632199,001,2025-03-17_14h38.39.233,Estimulo_ICE,2024.2.4,59.924554985130385,2025-03-17 14h38.44.546313 -0300,
Estimulo_5,5,5,0,3.9,-3.9,3.9,-3.9,2.2,-2.2,-2.2,2.2,0,1,1,4,,,,,,,,,,,,,,,,,0,5,5,5,,,,,,,,,,,,,,,,,,,,,,,,,,,,,23.945351899999878,,,,,,,,,,,,,,,,,23.931826900000033,23.945351899999878,23.945351899999878,23.945351899999878,24.231141899999784,24.231389600000057,24.245415100000173,24.245415100000173,24.245415100000173,24.545269899999766,24.545269899999766,24.545269899999766,24.531046699999933,24.245415100000173,24.245415100000173,24.245415100000173,632199,001,2025-03-17_14h38.39.233,Estimulo_ICE,2024.2.4,59.924554985130385,2025-03-17 14h38.44.546313 -0300,
Estimulo_5,6,6,0,3.8,-3.8,3.8,-3.8,2.2,-2.2,-2.2,2.2,0,1,1,4,,,,,,,,,,,,,,,,,0,6,6,6,,,,,,,,,,,,,,,,,,,,,,,,,,,,,24.545269899999766,,,,,,,,,,,,,,,,,24.531411500000104,24.545269899999766,24.545269899999766,24.545269899999766,24.83096660000001,24.831206500000008,24.845366999999897,24.845366999999897,24.845366999999897,25.145099899999877,25.145099899999877,25.145099899999877,25.131198699999914,24.845366999999897,24.845366999999897,24.845366999999897,632199,001,2025-03-17_14h38.39.233,Estimulo_ICE,2024.2.4,59.924554985130385,2025-03-17 14h38.44.546313 -0300,
Estimulo_5,7,7,0,3.7,-3.7,3.7,-3.7,2.2,-2.2,-2.2,2.2,0,1,1,4,,,,,,,,,,,,,,,,,0,7,7,7,,,,,,,,,,,,,,,,,,,,,,,,,,,,,25.145099899999877,,,,,,,,,,,,,,,,,25.131562399999893,25.145099899999877,25.145099899999877,25.145099899999877,25.43108940000002,25.431340900000123,25.445326999999907,25.445326999999907,25.445326999999907,25.745327999999972,25.745327999999972,25.745327999999972,25.731148100000155,25.445326999999907,25.445326999999907,25.445326999999907,632199,001,2025-03-17_14h38.39.233,Estimulo_ICE,2024.2.4,59.924554985130385,2025-03-17 14h38.44.546313 -0300,
,8,8,0,3.6,-3.6,3.6,-3.6,2.2,-2.2,-2.2,2.2,,,,,,,,,,,,,,,,,,,,,0,8,8,8,,,,,,,,,,,,,,,,,,,,,,,,,,,,,25.745327999999972,,,,,,,,,,,,,,,,,25.731513599999744,25.745327999999972,25.745327999999972,25.745327999999972,,,,,,,,,,,,,,,,,,,,
