LoopName,thisN,thisTrialN,thisRepN,px1,px2,px3,px4,py1,py2,py3,py4,MainLoop.thisRepN,MainLoop.thisTrialN,MainLoop.thisN,MainLoop.thisIndex,loop_1.thisRepN,loop_1.thisTrialN,loop_1.thisN,loop_1.thisIndex,loop_2.thisRepN,loop_2.thisTrialN,loop_2.thisN,loop_2.thisIndex,loop_3.thisRepN,loop_3.thisTrialN,loop_3.thisN,loop_3.thisIndex,loop_4.thisRepN,loop_4.thisTrialN,loop_4.thisN,loop_4.thisIndex,loop_5.thisRepN,loop_5.thisTrialN,loop_5.thisN,loop_5.thisIndex,loop_6.thisRepN,loop_6.thisTrialN,loop_6.thisN,loop_6.thisIndex,loop_7.thisRepN,loop_7.thisTrialN,loop_7.thisN,loop_7.thisIndex,loop_8.thisRepN,loop_8.thisTrialN,loop_8.thisN,loop_8.thisIndex,loop_9.thisRepN,loop_9.thisTrialN,loop_9.thisN,loop_9.thisIndex,loop_10.thisRepN,loop_10.thisTrialN,loop_10.thisN,loop_10.thisIndex,loop_11.thisRepN,loop_11.thisTrialN,loop_11.thisN,loop_11.thisIndex,loop_12.thisRepN,loop_12.thisTrialN,loop_12.thisN,loop_12.thisIndex,thisRow.t,notes,codigo.started,codigo.stopped,trial.started,image.started,image_2.started,polygon.started,trial.stopped,trial_2.started,image_3.started,image_4.started,polygon_2.started,trial_2.stopped,_intertrial_interval_.started,polygon_5.started,_intertrial_interval_.stopped,trial_5.started,image_9.started,polygon_6.started,image_10.started,trial_5.stopped,trial_6.started,image_11.started,image_12.started,polygon_7.started,trial_6.stopped,image_9.stopped,polygon_6.stopped,image_10.stopped,image_11.stopped,image_12.stopped,polygon_7.stopped,trial_3.started,image_5.started,image_6.started,polygon_3.started,trial_3.stopped,trial_4.started,image_7.started,image_8.started,polygon_4.started,image_7.stopped,image_8.stopped,polygon_4.stopped,trial_4.stopped,image_5.stopped,image_6.stopped,polygon_3.stopped,participant,session,date,expName,psychopyVersion,frameRate,expStart,
Estimulo_4,0,0,0,2.2,-2.2,-2.2,2.2,1.09999999999998,-1.09999999999998,1.09999999999998,-1.09999999999998,0,0,0,3,,,,,,,,,,,,,0,0,0,0,,,,,,,,,,,,,,,,,,,,,,,,,,,,,,,,,0.07919880000008561,,0.022129999999378924,0.022440299999288982,0.07063809999999648,0.07919880000008561,0.07919880000008561,0.07919880000008561,0.331316799999513,0.3315365999997084,0.3455992999997761,0.3455992999997761,0.3455992999997761,0.6312512999993487,,,,,,,,,,,,,,,,,,,,,,,,,,,,,,,,,,,,725547,001,2025-03-17_15h34.37.279,Estimulo_ICE,2024.2.4,60.01165426303333,2025-03-17 15h34.42.403419 -0300,
Estimulo_4,1,1,0,2.2,-2.2,-2.2,2.2,1.19999999999998,-1.19999999999998,1.19999999999998,-1.19999999999998,0,0,0,3,,,,,,,,,,,,,0,1,1,1,,,,,,,,,,,,,,,,,,,,,,,,,,,,,,,,,0.6456564000000071,,,,0.6315995999993902,0.6456564000000071,0.6456564000000071,0.6456564000000071,0.9312171000001399,0.9314539999995759,0.9454446999998254,0.9454446999998254,0.9454446999998254,1.231203899999855,,,,,,,,,,,,,,,,,,,,,,,,,,,,,,,,,,,,725547,001,2025-03-17_15h34.37.279,Estimulo_ICE,2024.2.4,60.01165426303333,2025-03-17 15h34.42.403419 -0300,
Estimulo_4,2,2,0,2.2,-2.2,-2.2,2.2,1.29999999999998,-1.29999999999998,1.29999999999998,-1.29999999999998,0,0,0,3,,,,,,,,,,,,,0,2,2,2,,,,,,,,,,,,,,,,,,,,,,,,,,,,,,,,,1.2454490999998598,,,,1.2315602999997282,1.2454490999998598,1.2454490999998598,1.2454490999998598,1.5314134000000195,1.5316472999993493,1.5457304999999906,1.5457304999999906,1.5457304999999906,1.8310559999999896,,,,,,,,,,,,,,,,,,,,,,,,,,,,,,,,,,,,725547,001,2025-03-17_15h34.37.279,Estimulo_ICE,2024.2.4,60.01165426303333,2025-03-17 15h34.42.403419 -0300,
Estimulo_4,3,3,0,2.2,-2.2,-2.2,2.2,1.39999999999998,-1.39999999999998,1.39999999999998,-1.39999999999998,0,0,0,3,,,,,,,,,,,,,0,3,3,3,,,,,,,,,,,,,,,,,,,,,,,,,,,,,,,,,1.8456204999993133,,,,1.8314034999993964,1.8456204999993133,1.8456204999993133,1.8456204999993133,2.131214,2.1314488999996684,2.1456434000001536,2.1456434000001536,2.1456434000001536,2.4311539000000266,,,,,,,,,,,,,,,,,,,,,,,,,,,,,,,,,,,,725547,001,2025-03-17_15h34.37.279,Estimulo_ICE,2024.2.4,60.01165426303333,2025-03-17 15h34.42.403419 -0300,
Estimulo_4,4,4,0,2.2,-2.2,-2.2,2.2,1.49999999999998,-1.49999999999998,1.49999999999998,-1.49999999999998,0,0,0,3,,,,,,,,,,,,,0,4,4,4,,,,,,,,,,,,,,,,,,,,,,,,,,,,,,,,,2.4456642999994074,,,,2.431499199999962,2.4456642999994074,2.4456642999994074,2.4456642999994074,2.7312936999996964,2.7315302999995765,2.745503000000099,2.745503000000099,2.745503000000099,3.031224199999997,,,,,,,,,,,,,,,,,,,,,,,,,,,,,,,,,,,,725547,001,2025-03-17_15h34.37.279,Estimulo_ICE,2024.2.4,60.01165426303333,2025-03-17 15h34.42.403419 -0300,
Estimulo_4,5,5,0,2.2,-2.2,-2.2,2.2,1.59999999999998,-1.59999999999998,1.59999999999998,-1.59999999999998,0,0,0,3,,,,,,,,,,,,,0,5,5,5,,,,,,,,,,,,,,,,,,,,,,,,,,,,,,,,,3.045655299999453,,,,3.0315731999999116,3.045655299999453,3.045655299999453,3.045655299999453,3.3312071999998807,3.331441299999824,3.3456203999994614,3.3456203999994614,3.3456203999994614,3.6310232999994696,,,,,,,,,,,,,,,,,,,,,,,,,,,,,,,,,,,,725547,001,2025-03-17_15h34.37.279,Estimulo_ICE,2024.2.4,60.01165426303333,2025-03-17 15h34.42.403419 -0300,
Estimulo_4,6,6,0,2.2,-2.2,-2.2,2.2,1.69999999999998,-1.69999999999998,1.69999999999998,-1.69999999999998,0,0,0,3,,,,,,,,,,,,,0,6,6,6,,,,,,,,,,,,,,,,,,,,,,,,,,,,,,,,,3.64570459999959,,,,3.6313712999999552,3.64570459999959,3.64570459999959,3.64570459999959,3.9312826999994286,3.931515799999943,3.945372799999859,3.945372799999859,3.945372799999859,4.231124899999486,,,,,,,,,,,,,,,,,,,,,,,,,,,,,,,,,,,,725547,001,2025-03-17_15h34.37.279,Estimulo_ICE,2024.2.4,60.01165426303333,2025-03-17 15h34.42.403419 -0300,
Estimulo_4,7,7,0,2.2,-2.2,-2.2,2.2,1.79999999999998,-1.79999999999998,1.79999999999998,-1.79999999999998,0,0,0,3,,,,,,,,,,,,,0,7,7,7,,,,,,,,,,,,,,,,,,,,,,,,,,,,,,,,,4.2456760999994,,,,4.2314698999998654,4.2456760999994,4.2456760999994,4.2456760999994,4.531162999999651,4.531397299999298,4.545586700000058,4.545586700000058,4.545586700000058,4.831142099999852,,,,,,,,,,,,,,,,,,,,,,,,,,,,,,,,,,,,725547,001,2025-03-17_15h34.37.279,Estimulo_ICE,2024.2.4,60.01165426303333,2025-03-17 15h34.42.403419 -0300,
Estimulo_4,8,8,0,2.2,-2.2,-2.2,2.2,1.89999999999998,-1.89999999999998,1.89999999999998,-1.89999999999998,0,0,0,3,,,,,,,,,,,,,0,8,8,8,,,,,,,,,,,,,,,,,,,,,,,,,,,,,,,,,4.845599399999628,,,,4.831484599999385,4.845599399999628,4.845599399999628,4.845599399999628,5.1312183000000005,5.131451299999753,5.14564799999971,5.14564799999971,5.14564799999971,5.431170599999859,,,,,,,,,,,,,,,,,,,,,,,,,,,,,,,,,,,,725547,001,2025-03-17_15h34.37.279,Estimulo_ICE,2024.2.4,60.01165426303333,2025-03-17 15h34.42.403419 -0300,
Estimulo_4,9,9,0,2.2,-2.2,-2.2,2.2,1.99999999999998,-1.99999999999998,1.99999999999998,-1.99999999999998,0,0,0,3,,,,,,,,,,,,,0,9,9,9,,,,,,,,,,,,,,,,,,,,,,,,,,,,,,,,,5.44538299999931,,,,5.431516900000133,5.44538299999931,5.44538299999931,5.44538299999931,5.731142900000123,5.731379199999537,5.745596299999306,5.745596299999306,5.745596299999306,6.031010900000183,,,,,,,,,,,,,,,,,,,,,,,,,,,,,,,,,,,,725547,001,2025-03-17_15h34.37.279,Estimulo_ICE,2024.2.4,60.01165426303333,2025-03-17 15h34.42.403419 -0300,
Estimulo_4,10,10,0,2.2,-2.2,-2.2,2.2,2.09999999999998,-2.09999999999998,2.09999999999998,-2.09999999999998,0,0,0,3,,,,,,,,,,,,,0,10,10,10,,,,,,,,,,,,,,,,,,,,,,,,,,,,,,,,,6.04557289999957,,,,6.031358799999907,6.04557289999957,6.04557289999957,6.04557289999957,6.3312184999995225,6.331454600000143,6.345592499999839,6.345592499999839,6.345592499999839,6.634519700000055,,,,,,,,,,,,,,,,,,,,,,,,,,,,,,,,,,,,725547,001,2025-03-17_15h34.37.279,Estimulo_ICE,2024.2.4,60.01165426303333,2025-03-17 15h34.42.403419 -0300,
Estimulo_4,11,11,0,2.2,-2.2,-2.2,2.2,2.19999999999998,-2.19999999999998,2.19999999999998,-2.19999999999998,0,0,0,3,,,,,,,,,,,,,0,11,11,11,,,,,,,,,,,,,,,,,,,,,,,,,,,,,,,,,6.646562899999481,,,,6.6352266999992935,6.646562899999481,6.646562899999481,6.646562899999481,6.934503099999347,6.934990199999447,6.946657200000118,6.946657200000118,6.946657200000118,7.234356799999659,,,,,,,,,,,,,,,,,,,,,,,,,,,,,,,,,,,,725547,001,2025-03-17_15h34.37.279,Estimulo_ICE,2024.2.4,60.01165426303333,2025-03-17 15h34.42.403419 -0300,
Estimulo_4,12,12,0,2.2,-2.2,-2.2,2.2,2.29999999999998,-2.29999999999998,2.29999999999998,-2.29999999999998,0,0,0,3,,,,,,,,,,,,,0,12,12,12,,,,,,,,,,,,,,,,,,,,,,,,,,,,,,,,,7.246615500000189,,,,7.235086499999852,7.246615500000189,7.246615500000189,7.246615500000189,7.534717699999419,7.535205299999689,7.546596499999396,7.546596499999396,7.546596499999396,7.834561300000132,,,,,,,,,,,,,,,,,,,,,,,,,,,,,,,,,,,,725547,001,2025-03-17_15h34.37.279,Estimulo_ICE,2024.2.4,60.01165426303333,2025-03-17 15h34.42.403419 -0300,
Estimulo_4,13,13,0,2.2,-2.2,-2.2,2.2,2.39999999999998,-2.39999999999998,2.39999999999998,-2.39999999999998,0,0,0,3,,,,,,,,,,,,,0,13,13,13,,,,,,,,,,,,,,,,,,,,,,,,,,,,,,,,,7.846680300000116,,,,7.835271599999942,7.846680300000116,7.846680300000116,7.846680300000116,8.132139800000004,8.132466299999578,8.14601169999969,8.14601169999969,8.14601169999969,8.432192399999622,,,,,,,,,,,,,,,,,,,,,,,,,,,,,,,,,,,,725547,001,2025-03-17_15h34.37.279,Estimulo_ICE,2024.2.4,60.01165426303333,2025-03-17 15h34.42.403419 -0300,
Estimulo_4,14,14,0,2.2,-2.2,-2.2,2.2,2.49999999999998,-2.49999999999998,2.49999999999998,-2.49999999999998,0,0,0,3,,,,,,,,,,,,,0,14,14,14,,,,,,,,,,,,,,,,,,,,,,,,,,,,,,,,,8.44584870000017,,,,8.432662899999741,8.44584870000017,8.44584870000017,8.44584870000017,8.734573599999749,8.735066399999596,8.746498399999837,8.746498399999837,8.746498399999837,9.031109699999433,,,,,,,,,,,,,,,,,,,,,,,,,,,,,,,,,,,,725547,001,2025-03-17_15h34.37.279,Estimulo_ICE,2024.2.4,60.01165426303333,2025-03-17 15h34.42.403419 -0300,
Estimulo_4,15,15,0,2.2,-2.2,-2.2,2.2,2.59999999999998,-2.59999999999998,2.59999999999998,-2.59999999999998,0,0,0,3,,,,,,,,,,,,,0,15,15,15,,,,,,,,,,,,,,,,,,,,,,,,,,,,,,,,,9.045546399999694,,,,9.031459099999665,9.045546399999694,9.045546399999694,9.045546399999694,9.331264499999634,9.331500199999937,9.34539390000009,9.34539390000009,9.34539390000009,9.631121099999291,,,,,,,,,,,,,,,,,,,,,,,,,,,,,,,,,,,,725547,001,2025-03-17_15h34.37.279,Estimulo_ICE,2024.2.4,60.01165426303333,2025-03-17 15h34.42.403419 -0300,
Estimulo_4,16,16,0,2.2,-2.2,-2.2,2.2,2.69999999999998,-2.69999999999998,2.69999999999998,-2.69999999999998,0,0,0,3,,,,,,,,,,,,,0,16,16,16,,,,,,,,,,,,,,,,,,,,,,,,,,,,,,,,,9.645402600000125,,,,9.631467199999861,9.645402600000125,9.645402600000125,9.645402600000125,9.931182299999818,9.931416999999783,9.945350299999518,9.945350299999518,9.945350299999518,10.230959200000143,,,,,,,,,,,,,,,,,,,,,,,,,,,,,,,,,,,,725547,001,2025-03-17_15h34.37.279,Estimulo_ICE,2024.2.4,60.01165426303333,2025-03-17 15h34.42.403419 -0300,
Estimulo_4,17,17,0,2.2,-2.2,-2.2,2.2,2.79999999999998,-2.79999999999998,2.79999999999998,-2.79999999999998,0,0,0,3,,,,,,,,,,,,,0,17,17,17,,,,,,,,,,,,,,,,,,,,,,,,,,,,,,,,,10.2455202000001,,,,10.231307500000185,10.2455202000001,10.2455202000001,10.2455202000001,10.531116600000132,10.531351599999653,10.545574099999612,10.545574099999612,10.545574099999612,10.83492810000007,,,,,,,,,,,,,,,,,,,,,,,,,,,,,,,,,,,,725547,001,2025-03-17_15h34.37.279,Estimulo_ICE,2024.2.4,60.01165426303333,2025-03-17 15h34.42.403419 -0300,
Estimulo_4,18,18,0,2.2,-2.2,-2.2,2.2,2.89999999999998,-2.89999999999998,2.89999999999998,-2.89999999999998,0,0,0,3,,,,,,,,,,,,,0,18,18,18,,,,,,,,,,,,,,,,,,,,,,,,,,,,,,,,,10.846730999999636,,,,10.835672499999419,10.846730999999636,10.846730999999636,10.846730999999636,11.13489859999936,11.135418299999401,11.146844599999895,11.146844599999895,11.146844599999895,11.434952099999464,,,,,,,,,,,,,,,,,,,,,,,,,,,,,,,,,,,,725547,001,2025-03-17_15h34.37.279,Estimulo_ICE,2024.2.4,60.01165426303333,2025-03-17 15h34.42.403419 -0300,
Estimulo_4,19,19,0,2.2,-2.2,-2.2,2.2,2.99999999999998,-2.99999999999998,2.99999999999998,-2.99999999999998,0,0,0,3,,,,,,,,,,,,,0,19,19,19,,,,,,,,,,,,,,,,,,,,,,,,,,,,,,,,,11.446718999999575,,,,11.435703299999659,11.446718999999575,11.446718999999575,11.446718999999575,11.734791899999436,11.735296699999708,11.746726999999737,11.746726999999737,11.746726999999737,12.030995299999631,,,,,,,,,,,,,,,,,,,,,,,,,,,,,,,,,,,,725547,001,2025-03-17_15h34.37.279,Estimulo_ICE,2024.2.4,60.01165426303333,2025-03-17 15h34.42.403419 -0300,
Estimulo_4,20,20,0,2.2,-2.2,-2.2,2.2,3.09999999999998,-3.09999999999998,3.09999999999998,-3.09999999999998,0,0,0,3,,,,,,,,,,,,,0,20,20,20,,,,,,,,,,,,,,,,,,,,,,,,,,,,,,,,,12.04560979999951,,,,12.03134399999999,12.04560979999951,12.04560979999951,12.04560979999951,12.331145399999514,12.331380799999351,12.345559599999433,12.345559599999433,12.345559599999433,12.631068400000004,,,,,,,,,,,,,,,,,,,,,,,,,,,,,,,,,,,,725547,001,2025-03-17_15h34.37.279,Estimulo_ICE,2024.2.4,60.01165426303333,2025-03-17 15h34.42.403419 -0300,
Estimulo_4,21,21,0,2.2,-2.2,-2.2,2.2,3.19999999999998,-3.19999999999998,3.19999999999998,-3.19999999999998,0,0,0,3,,,,,,,,,,,,,0,21,21,21,,,,,,,,,,,,,,,,,,,,,,,,,,,,,,,,,12.645583599999554,,,,12.631413999999495,12.645583599999554,12.645583599999554,12.645583599999554,12.931109799999831,12.931344499999796,12.945294699999977,12.945294699999977,12.945294699999977,13.231112499999654,,,,,,,,,,,,,,,,,,,,,,,,,,,,,,,,,,,,725547,001,2025-03-17_15h34.37.279,Estimulo_ICE,2024.2.4,60.01165426303333,2025-03-17 15h34.42.403419 -0300,
Estimulo_4,22,22,0,2.2,-2.2,-2.2,2.2,3.29999999999998,-3.29999999999998,3.29999999999998,-3.29999999999998,0,0,0,3,,,,,,,,,,,,,0,22,22,22,,,,,,,,,,,,,,,,,,,,,,,,,,,,,,,,,13.245382600000084,,,,13.23146159999942,13.245382600000084,13.245382600000084,13.245382600000084,13.53099359999942,13.531226099999913,13.545631999999387,13.545631999999387,13.545631999999387,13.83093849999932,,,,,,,,,,,,,,,,,,,,,,,,,,,,,,,,,,,,725547,001,2025-03-17_15h34.37.279,Estimulo_ICE,2024.2.4,60.01165426303333,2025-03-17 15h34.42.403419 -0300,
Estimulo_4,23,23,0,2.2,-2.2,-2.2,2.2,3.39999999999998,-3.39999999999998,3.39999999999998,-3.39999999999998,0,0,0,3,,,,,,,,,,,,,0,23,23,23,,,,,,,,,,,,,,,,,,,,,,,,,,,,,,,,,13.845608999999968,,,,13.831283900000017,13.845608999999968,13.845608999999968,13.845608999999968,14.1311311999998,14.131365999999616,14.14533500000016,14.14533500000016,14.14533500000016,14.431076299999404,,,,,,,,,,,,,,,,,,,,,,,,,,,,,,,,,,,,725547,001,2025-03-17_15h34.37.279,Estimulo_ICE,2024.2.4,60.01165426303333,2025-03-17 15h34.42.403419 -0300,
Estimulo_4,24,24,0,2.2,-2.2,-2.2,2.2,3.49999999999998,-3.49999999999998,3.49999999999998,-3.49999999999998,0,0,0,3,,,,,,,,,,,,,0,24,24,24,,,,,,,,,,,,,,,,,,,,,,,,,,,,,,,,,14.445525199999793,,,,14.431422599999678,14.445525199999793,14.445525199999793,14.445525199999793,14.731177300000127,14.731414199999563,14.745392599999832,14.745392599999832,14.745392599999832,15.03114849999929,,,,,,,,,,,,,,,,,,,,,,,,,,,,,,,,,,,,725547,001,2025-03-17_15h34.37.279,Estimulo_ICE,2024.2.4,60.01165426303333,2025-03-17 15h34.42.403419 -0300,
Estimulo_4,25,25,0,2.2,-2.2,-2.2,2.2,3.59999999999998,-3.59999999999998,3.59999999999998,-3.59999999999998,0,0,0,3,,,,,,,,,,,,,0,25,25,25,,,,,,,,,,,,,,,,,,,,,,,,,,,,,,,,,15.045335299999351,,,,15.031499300000178,15.045335299999351,15.045335299999351,15.045335299999351,15.330888399999822,15.33112439999968,15.345624499999758,15.345624499999758,15.345624499999758,15.630925499999648,,,,,,,,,,,,,,,,,,,,,,,,,,,,,,,,,,,,725547,001,2025-03-17_15h34.37.279,Estimulo_ICE,2024.2.4,60.01165426303333,2025-03-17 15h34.42.403419 -0300,
Estimulo_4,26,26,0,2.2,-2.2,-2.2,2.2,3.69999999999998,-3.69999999999998,3.69999999999998,-3.69999999999998,0,0,0,3,,,,,,,,,,,,,0,26,26,26,,,,,,,,,,,,,,,,,,,,,,,,,,,,,,,,,15.645552599999974,,,,15.6312726999995,15.645552599999974,15.645552599999974,15.645552599999974,15.931138399999327,15.931373800000074,15.94529859999966,15.94529859999966,15.94529859999966,16.23106749999988,,,,,,,,,,,,,,,,,,,,,,,,,,,,,,,,,,,,725547,001,2025-03-17_15h34.37.279,Estimulo_ICE,2024.2.4,60.01165426303333,2025-03-17 15h34.42.403419 -0300,
Estimulo_4,27,27,0,2.2,-2.2,-2.2,2.2,3.79999999999998,-3.79999999999998,3.79999999999998,-3.79999999999998,0,0,0,3,,,,,,,,,,,,,0,27,27,27,,,,,,,,,,,,,,,,,,,,,,,,,,,,,,,,,16.245324999999866,,,,16.231415799999922,16.245324999999866,16.245324999999866,16.245324999999866,16.531117900000027,16.531351199999335,16.545502699999815,16.545502699999815,16.545502699999815,16.831064699999843,,,,,,,,,,,,,,,,,,,,,,,,,,,,,,,,,,,,725547,001,2025-03-17_15h34.37.279,Estimulo_ICE,2024.2.4,60.01165426303333,2025-03-17 15h34.42.403419 -0300,
Estimulo_4,28,28,0,2.2,-2.2,-2.2,2.2,3.89999999999998,-3.89999999999998,3.89999999999998,-3.89999999999998,0,0,0,3,,,,,,,,,,,,,0,28,28,28,,,,,,,,,,,,,,,,,,,,,,,,,,,,,,,,,16.845522900000105,,,,16.831411000000116,16.845522900000105,16.845522900000105,16.845522900000105,17.131154900000183,17.131389999999556,17.145359999999528,17.145359999999528,17.145359999999528,17.431058199999825,,,,,,,,,,,,,,,,,,,,,,,,,,,,,,,,,,,,725547,001,2025-03-17_15h34.37.279,Estimulo_ICE,2024.2.4,60.01165426303333,2025-03-17 15h34.42.403419 -0300,
Estimulo_4,29,29,0,2.2,-2.2,-2.2,2.2,3.99999999999998,-3.99999999999998,3.99999999999998,-3.99999999999998,0,0,0,3,,,,,,,,,,,,,0,29,29,29,,,,,,,,,,,,,,,,,,,,,,,,,,,,,,,,,17.44534719999956,,,,17.43141000000014,17.44534719999956,17.44534719999956,17.44534719999956,17.730878800000028,17.73111289999997,17.745522399999572,17.745522399999572,17.745522399999572,18.031078199999683,,,,,,,,,,,,,,,,,,,,,,,,,,,,,,,,,,,,725547,001,2025-03-17_15h34.37.279,Estimulo_ICE,2024.2.4,60.01165426303333,2025-03-17 15h34.42.403419 -0300,
Estimulo_4,30,30,0,2.2,-2.2,-2.2,2.2,4.09999999999998,-4.09999999999998,4.09999999999998,-4.09999999999998,0,0,0,3,,,,,,,,,,,,,0,30,30,30,,,,,,,,,,,,,,,,,,,,,,,,,,,,,,,,,18.045560799999294,,,,18.03142620000017,18.045560799999294,18.045560799999294,18.045560799999294,18.331088899999486,18.331324499999937,18.34553219999998,18.34553219999998,18.34553219999998,18.63120809999964,,,,,,,,,,,,,,,,,,,,,,,,,,,,,,,,,,,,725547,001,2025-03-17_15h34.37.279,Estimulo_ICE,2024.2.4,60.01165426303333,2025-03-17 15h34.42.403419 -0300,
Estimulo_4,31,31,0,2.2,-2.2,-2.2,2.2,4.19999999999998,-4.19999999999998,4.19999999999998,-4.19999999999998,0,0,0,3,,,,,,,,,,,,,0,31,31,31,,,,,,,,,,,,,,,,,,,,,,,,,,,,,,,,,18.645594199999323,,,,18.631555500000104,18.645594199999323,18.645594199999323,18.645594199999323,18.93088759999955,18.931122899999536,18.945276899999953,18.945276899999953,18.945276899999953,19.23091629999999,,,,,,,,,,,,,,,,,,,,,,,,,,,,,,,,,,,,725547,001,2025-03-17_15h34.37.279,Estimulo_ICE,2024.2.4,60.01165426303333,2025-03-17 15h34.42.403419 -0300,
Estimulo_4,32,32,0,2.2,-2.2,-2.2,2.2,4.29999999999998,-4.29999999999998,4.29999999999998,-4.29999999999998,0,0,0,3,,,,,,,,,,,,,0,32,32,32,,,,,,,,,,,,,,,,,,,,,,,,,,,,,,,,,19.245543799999723,,,,19.231270100000074,19.245543799999723,19.245543799999723,19.245543799999723,19.530907800000023,19.531145099999776,19.545462699999916,19.545462699999916,19.545462699999916,19.830861800000093,,,,,,,,,,,,,,,,,,,,,,,,,,,,,,,,,,,,725547,001,2025-03-17_15h34.37.279,Estimulo_ICE,2024.2.4,60.01165426303333,2025-03-17 15h34.42.403419 -0300,
Estimulo_4,33,33,0,2.2,-2.2,-2.2,2.2,4.39999999999998,-4.39999999999998,4.39999999999998,-4.39999999999998,0,0,0,3,,,,,,,,,,,,,0,33,33,33,,,,,,,,,,,,,,,,,,,,,,,,,,,,,,,,,19.845547999999326,,,,19.83121889999984,19.845547999999326,19.845547999999326,19.845547999999326,20.13105959999939,20.131295399999544,20.1455705999997,20.1455705999997,20.1455705999997,20.431033799999568,,,,,,,,,,,,,,,,,,,,,,,,,,,,,,,,,,,,725547,001,2025-03-17_15h34.37.279,Estimulo_ICE,2024.2.4,60.01165426303333,2025-03-17 15h34.42.403419 -0300,
Estimulo_4,0,0,0,,,,,,,,,0,0,0,3,,,,,,,,,,,,,,,,,,,,,,,,,,,,,,,,,,,,,,,,,,,,,,,,,,,,,,,,,,,,,,,20.532926699999734,20.54483859999982,21.930847399999948,,,,,,,,,,,,,,,,,,,,,,,,,,,,,,,,,725547,001,2025-03-17_15h34.37.279,Estimulo_ICE,2024.2.4,60.01165426303333,2025-03-17 15h34.42.403419 -0300,
Estimulo_9,0,0,0,4.4,-4.4,4.4,-4.4,2.2,-2.2,-2.2,2.2,0,1,1,8,,,,,,,,,,,,,,,,,,,,,,,,,,,,,,,,,0,0,0,0,,,,,,,,,,,,,22.04496399999971,,21.930956100000003,21.93135799999982,,,,,,,,,,,,,,22.039383199999975,22.04496399999971,22.04496399999971,22.04496399999971,22.247794500000055,22.248013099999298,22.261989799999355,22.261989799999355,22.261989799999355,22.547680099999525,,,,,,,,,,,,,,,,,,,,,,,725547,001,2025-03-17_15h34.37.279,Estimulo_ICE,2024.2.4,60.01165426303333,2025-03-17 15h34.42.403419 -0300,
Estimulo_9,1,1,0,4.3,-4.3,4.3,-4.3,2.2,-2.2,-2.2,2.2,0,1,1,8,,,,,,,,,,,,,,,,,,,,,,,,,,,,,,,,,0,1,1,1,,,,,,,,,,,,,22.562105599999995,,,,,,,,,,,,,,,,,22.54802800000016,22.562105599999995,22.562105599999995,22.562105599999995,22.83651649999956,22.83716219999951,22.847180799999478,22.847180799999478,22.847180799999478,23.13350619999983,,,,,,,,,,,,,,,,,,,,,,,725547,001,2025-03-17_15h34.37.279,Estimulo_ICE,2024.2.4,60.01165426303333,2025-03-17 15h34.42.403419 -0300,
Estimulo_9,2,2,0,4.2,-4.2,4.2,-4.2,2.2,-2.2,-2.2,2.2,0,1,1,8,,,,,,,,,,,,,,,,,,,,,,,,,,,,,,,,,0,2,2,2,,,,,,,,,,,,,23.146252200000163,,,,,,,,,,,,,,,,,23.134110399999372,23.146252200000163,23.146252200000163,23.146252200000163,23.43348269999933,23.43389489999936,23.446240499999476,23.446240499999476,23.446240499999476,23.731436199999735,,,,,,,,,,,,,,,,,,,,,,,725547,001,2025-03-17_15h34.37.279,Estimulo_ICE,2024.2.4,60.01165426303333,2025-03-17 15h34.42.403419 -0300,
Estimulo_9,3,3,0,4.1,-4.1,4.1,-4.1,2.2,-2.2,-2.2,2.2,0,1,1,8,,,,,,,,,,,,,,,,,,,,,,,,,,,,,,,,,0,3,3,3,,,,,,,,,,,,,23.745373400000062,,,,,,,,,,,,,,,,,23.731836399999338,23.745373400000062,23.745373400000062,23.745373400000062,24.031426399999873,24.031700599999567,24.04553820000001,24.04553820000001,24.04553820000001,24.334163599999556,,,,,,,,,,,,,,,,,,,,,,,725547,001,2025-03-17_15h34.37.279,Estimulo_ICE,2024.2.4,60.01165426303333,2025-03-17 15h34.42.403419 -0300,
Estimulo_9,4,4,0,4,-4,4,-4,2.2,-2.2,-2.2,2.2,0,1,1,8,,,,,,,,,,,,,,,,,,,,,,,,,,,,,,,,,0,4,4,4,,,,,,,,,,,,,24.346600099999705,,,,,,,,,,,,,,,,,24.334882000000107,24.346600099999705,24.346600099999705,24.346600099999705,24.634242499999345,24.634730599999784,24.646686099999897,24.646686099999897,24.646686099999897,24.93428059999951,,,,,,,,,,,,,,,,,,,,,,,725547,001,2025-03-17_15h34.37.279,Estimulo_ICE,2024.2.4,60.01165426303333,2025-03-17 15h34.42.403419 -0300,
Estimulo_9,5,5,0,3.9,-3.9,3.9,-3.9,2.2,-2.2,-2.2,2.2,0,1,1,8,,,,,,,,,,,,,,,,,,,,,,,,,,,,,,,,,0,5,5,5,,,,,,,,,,,,,24.946512200000143,,,,,,,,,,,,,,,,,24.935000800000125,24.946512200000143,24.946512200000143,24.946512200000143,25.231675399999403,25.231947399999626,25.245472499999778,25.245472499999778,25.245472499999778,25.531742699999995,25.245472499999778,25.245472499999778,25.245472499999778,25.545491299999412,25.545491299999412,25.545491299999412,,,,,,,,,,,,,,,,,725547,001,2025-03-17_15h34.37.279,Estimulo_ICE,2024.2.4,60.01165426303333,2025-03-17 15h34.42.403419 -0300,
Estimulo_9,6,6,0,3.8,-3.8,3.8,-3.8,2.2,-2.2,-2.2,2.2,0,1,1,8,,,,,,,,,,,,,,,,,,,,,,,,,,,,,,,,,0,6,6,6,,,,,,,,,,,,,25.545491299999412,,,,,,,,,,,,,,,,,25.532145299999684,25.545491299999412,25.545491299999412,25.545491299999412,25.831714399999328,25.831984499999635,25.845539799999642,25.845539799999642,25.845539799999642,26.13165079999999,25.845539799999642,25.845539799999642,25.845539799999642,26.145535199999358,26.145535199999358,26.145535199999358,,,,,,,,,,,,,,,,,725547,001,2025-03-17_15h34.37.279,Estimulo_ICE,2024.2.4,60.01165426303333,2025-03-17 15h34.42.403419 -0300,
Estimulo_9,7,7,0,3.7,-3.7,3.7,-3.7,2.2,-2.2,-2.2,2.2,0,1,1,8,,,,,,,,,,,,,,,,,,,,,,,,,,,,,,,,,0,7,7,7,,,,,,,,,,,,,26.145535199999358,,,,,,,,,,,,,,,,,26.13204229999974,26.145535199999358,26.145535199999358,26.145535199999358,26.436538799999653,26.437170799999876,26.44713109999975,26.44713109999975,26.44713109999975,26.747955400000137,,,,,,,,,,,,,,,,,,,,,,,725547,001,2025-03-17_15h34.37.279,Estimulo_ICE,2024.2.4,60.01165426303333,2025-03-17 15h34.42.403419 -0300,
Estimulo_9,8,8,0,3.6,-3.6,3.6,-3.6,2.2,-2.2,-2.2,2.2,0,1,1,8,,,,,,,,,,,,,,,,,,,,,,,,,,,,,,,,,0,8,8,8,,,,,,,,,,,,,26.762216799999806,,,,,,,,,,,,,,,,,26.74834389999978,26.762216799999806,26.762216799999806,26.762216799999806,27.048096200000145,27.04836179999984,27.06215340000017,27.06215340000017,27.06215340000017,27.348012599999493,,,,,,,,,,,,,,,,,,,,,,,725547,001,2025-03-17_15h34.37.279,Estimulo_ICE,2024.2.4,60.01165426303333,2025-03-17 15h34.42.403419 -0300,
Estimulo_9,9,9,0,3.5,-3.5,3.5,-3.5,2.2,-2.2,-2.2,2.2,0,1,1,8,,,,,,,,,,,,,,,,,,,,,,,,,,,,,,,,,0,9,9,9,,,,,,,,,,,,,27.362125399999968,,,,,,,,,,,,,,,,,27.34840129999975,27.362125399999968,27.362125399999968,27.362125399999968,27.64806789999966,27.648328199999924,27.66217669999969,27.66217669999969,27.66217669999969,27.938300199999503,,,,,,,,,,,,,,,,,,,,,,,725547,001,2025-03-17_15h34.37.279,Estimulo_ICE,2024.2.4,60.01165426303333,2025-03-17 15h34.42.403419 -0300,
Estimulo_9,10,10,0,3.39999999999999,-3.39999999999999,3.39999999999999,-3.39999999999999,2.2,-2.2,-2.2,2.2,0,1,1,8,,,,,,,,,,,,,,,,,,,,,,,,,,,,,,,,,0,10,10,10,,,,,,,,,,,,,27.947384899999633,,,,,,,,,,,,,,,,,27.9394070999997,27.947384899999633,27.947384899999633,27.947384899999633,28.234255100000155,28.23475629999939,28.246501900000112,28.246501900000112,28.246501900000112,28.53424339999947,,,,,,,,,,,,,,,,,,,,,,,725547,001,2025-03-17_15h34.37.279,Estimulo_ICE,2024.2.4,60.01165426303333,2025-03-17 15h34.42.403419 -0300,
Estimulo_9,11,11,0,3.29999999999999,-3.29999999999999,3.29999999999999,-3.29999999999999,2.2,-2.2,-2.2,2.2,0,1,1,8,,,,,,,,,,,,,,,,,,,,,,,,,,,,,,,,,0,11,11,11,,,,,,,,,,,,,28.546397799999795,,,,,,,,,,,,,,,,,28.534964299999956,28.546397799999795,28.546397799999795,28.546397799999795,28.83577199999945,28.83605129999978,28.845583899999838,28.845583899999838,28.845583899999838,29.13120650000019,,,,29.145547199999783,29.145547199999783,29.145547199999783,,,,,,,,,,,,,,,,,725547,001,2025-03-17_15h34.37.279,Estimulo_ICE,2024.2.4,60.01165426303333,2025-03-17 15h34.42.403419 -0300,
Estimulo_9,12,12,0,3.19999999999999,-3.19999999999999,3.19999999999999,-3.19999999999999,2.2,-2.2,-2.2,2.2,0,1,1,8,,,,,,,,,,,,,,,,,,,,,,,,,,,,,,,,,0,12,12,12,,,,,,,,,,,,,29.145547199999783,,,,,,,,,,,,,,,,,29.1315826,29.145547199999783,29.145547199999783,29.145547199999783,29.431354999999712,29.43160970000008,29.44548169999962,29.44548169999962,29.44548169999962,29.731403699999646,29.44548169999962,29.44548169999962,29.44548169999962,29.74531449999995,29.74531449999995,29.74531449999995,,,,,,,,,,,,,,,,,725547,001,2025-03-17_15h34.37.279,Estimulo_ICE,2024.2.4,60.01165426303333,2025-03-17 15h34.42.403419 -0300,
Estimulo_9,13,13,0,3.09999999999999,-3.09999999999999,3.09999999999999,-3.09999999999999,2.2,-2.2,-2.2,2.2,0,1,1,8,,,,,,,,,,,,,,,,,,,,,,,,,,,,,,,,,0,13,13,13,,,,,,,,,,,,,29.74531449999995,,,,,,,,,,,,,,,,,29.731762099999287,29.74531449999995,29.74531449999995,29.74531449999995,30.03139839999949,30.03165689999969,30.04552049999984,30.04552049999984,30.04552049999984,30.331367699999646,30.04552049999984,30.04552049999984,30.04552049999984,30.345459199999823,30.345459199999823,30.345459199999823,,,,,,,,,,,,,,,,,725547,001,2025-03-17_15h34.37.279,Estimulo_ICE,2024.2.4,60.01165426303333,2025-03-17 15h34.42.403419 -0300,
Estimulo_9,14,14,0,2.99999999999999,-2.99999999999999,2.99999999999999,-2.99999999999999,2.2,-2.2,-2.2,2.2,0,1,1,8,,,,,,,,,,,,,,,,,,,,,,,,,,,,,,,,,0,14,14,14,,,,,,,,,,,,,30.345459199999823,,,,,,,,,,,,,,,,,30.331746899999416,30.345459199999823,30.345459199999823,30.345459199999823,30.631361699999616,30.63161249999939,30.645472100000006,30.645472100000006,30.645472100000006,30.931381399999736,30.645472100000006,30.645472100000006,30.645472100000006,30.94520560000001,30.94520560000001,30.94520560000001,,,,,,,,,,,,,,,,,725547,001,2025-03-17_15h34.37.279,Estimulo_ICE,2024.2.4,60.01165426303333,2025-03-17 15h34.42.403419 -0300,
Estimulo_9,15,15,0,2.89999999999999,-2.89999999999999,2.89999999999999,-2.89999999999999,2.2,-2.2,-2.2,2.2,0,1,1,8,,,,,,,,,,,,,,,,,,,,,,,,,,,,,,,,,0,15,15,15,,,,,,,,,,,,,30.94520560000001,,,,,,,,,,,,,,,,,30.931756199999654,30.94520560000001,30.94520560000001,30.94520560000001,31.231406799999604,31.231662700000015,31.24534549999953,31.24534549999953,31.24534549999953,31.53144499999962,31.24534549999953,31.24534549999953,31.24534549999953,31.54522779999934,31.54522779999934,31.54522779999934,,,,,,,,,,,,,,,,,725547,001,2025-03-17_15h34.37.279,Estimulo_ICE,2024.2.4,60.01165426303333,2025-03-17 15h34.42.403419 -0300,
Estimulo_9,16,16,0,2.79999999999999,-2.79999999999999,2.79999999999999,-2.79999999999999,2.2,-2.2,-2.2,2.2,0,1,1,8,,,,,,,,,,,,,,,,,,,,,,,,,,,,,,,,,0,16,16,16,,,,,,,,,,,,,31.54522779999934,,,,,,,,,,,,,,,,,31.531815299999835,31.54522779999934,31.54522779999934,31.54522779999934,31.831247600000097,31.831499099999746,31.845384700000068,31.845384700000068,31.845384700000068,32.13135249999959,31.845384700000068,31.845384700000068,31.845384700000068,32.145383399999446,32.145383399999446,32.145383399999446,,,,,,,,,,,,,,,,,725547,001,2025-03-17_15h34.37.279,Estimulo_ICE,2024.2.4,60.01165426303333,2025-03-17 15h34.42.403419 -0300,
Estimulo_9,17,17,0,2.69999999999999,-2.69999999999999,2.69999999999999,-2.69999999999999,2.2,-2.2,-2.2,2.2,0,1,1,8,,,,,,,,,,,,,,,,,,,,,,,,,,,,,,,,,0,17,17,17,,,,,,,,,,,,,32.145383399999446,,,,,,,,,,,,,,,,,32.131725899999765,32.145383399999446,32.145383399999446,32.145383399999446,32.43136249999952,32.4316033999994,32.44543489999978,32.44543489999978,32.44543489999978,32.73122220000005,32.44543489999978,32.44543489999978,32.44543489999978,32.745276300000114,32.745276300000114,32.745276300000114,,,,,,,,,,,,,,,,,725547,001,2025-03-17_15h34.37.279,Estimulo_ICE,2024.2.4,60.01165426303333,2025-03-17 15h34.42.403419 -0300,
Estimulo_9,18,18,0,2.59999999999999,-2.59999999999999,2.59999999999999,-2.59999999999999,2.2,-2.2,-2.2,2.2,0,1,1,8,,,,,,,,,,,,,,,,,,,,,,,,,,,,,,,,,0,18,18,18,,,,,,,,,,,,,32.745276300000114,,,,,,,,,,,,,,,,,32.731592699999965,32.745276300000114,32.745276300000114,32.745276300000114,33.03132539999933,33.03157779999947,33.04548109999996,33.04548109999996,33.04548109999996,33.33125459999974,33.04548109999996,33.04548109999996,33.04548109999996,33.34541170000011,33.34541170000011,33.34541170000011,,,,,,,,,,,,,,,,,725547,001,2025-03-17_15h34.37.279,Estimulo_ICE,2024.2.4,60.01165426303333,2025-03-17 15h34.42.403419 -0300,
Estimulo_9,19,19,0,2.49999999999999,-2.49999999999999,2.49999999999999,-2.49999999999999,2.2,-2.2,-2.2,2.2,0,1,1,8,,,,,,,,,,,,,,,,,,,,,,,,,,,,,,,,,0,19,19,19,,,,,,,,,,,,,33.34541170000011,,,,,,,,,,,,,,,,,33.331629399999656,33.34541170000011,33.34541170000011,33.34541170000011,33.63132659999974,33.631578999999874,33.64543400000002,33.64543400000002,33.64543400000002,33.93119509999997,33.64543400000002,33.64543400000002,33.64543400000002,33.94513529999949,33.94513529999949,33.94513529999949,,,,,,,,,,,,,,,,,725547,001,2025-03-17_15h34.37.279,Estimulo_ICE,2024.2.4,60.01165426303333,2025-03-17 15h34.42.403419 -0300,
Estimulo_9,20,20,0,2.39999999999999,-2.39999999999999,2.39999999999999,-2.39999999999999,2.2,-2.2,-2.2,2.2,0,1,1,8,,,,,,,,,,,,,,,,,,,,,,,,,,,,,,,,,0,20,20,20,,,,,,,,,,,,,33.94513529999949,,,,,,,,,,,,,,,,,33.931568199999674,33.94513529999949,33.94513529999949,33.94513529999949,34.231176100000084,34.23142779999944,34.245328699999845,34.245328699999845,34.245328699999845,34.531243899999936,34.245328699999845,34.245328699999845,34.245328699999845,34.54536149999967,34.54536149999967,34.54536149999967,,,,,,,,,,,,,,,,,725547,001,2025-03-17_15h34.37.279,Estimulo_ICE,2024.2.4,60.01165426303333,2025-03-17 15h34.42.403419 -0300,
Estimulo_9,21,21,0,2.29999999999999,-2.29999999999999,2.29999999999999,-2.29999999999999,2.2,-2.2,-2.2,2.2,0,1,1,8,,,,,,,,,,,,,,,,,,,,,,,,,,,,,,,,,0,21,21,21,,,,,,,,,,,,,34.54536149999967,,,,,,,,,,,,,,,,,34.53161459999956,34.54536149999967,34.54536149999967,34.54536149999967,34.83129699999972,34.83154839999952,34.845184299999346,34.845184299999346,34.845184299999346,35.13139229999979,34.845184299999346,34.845184299999346,34.845184299999346,35.145426600000064,35.145426600000064,35.145426600000064,,,,,,,,,,,,,,,,,725547,001,2025-03-17_15h34.37.279,Estimulo_ICE,2024.2.4,60.01165426303333,2025-03-17 15h34.42.403419 -0300,
Estimulo_9,22,22,0,2.19999999999999,-2.19999999999999,2.19999999999999,-2.19999999999999,2.2,-2.2,-2.2,2.2,0,1,1,8,,,,,,,,,,,,,,,,,,,,,,,,,,,,,,,,,0,22,22,22,,,,,,,,,,,,,35.145426600000064,,,,,,,,,,,,,,,,,35.13175450000017,35.145426600000064,35.145426600000064,35.145426600000064,35.43112999999994,35.43138169999929,35.44548429999941,35.44548429999941,35.44548429999941,35.731511500000124,35.44548429999941,35.44548429999941,35.44548429999941,35.74539129999994,35.74539129999994,35.74539129999994,,,,,,,,,,,,,,,,,725547,001,2025-03-17_15h34.37.279,Estimulo_ICE,2024.2.4,60.01165426303333,2025-03-17 15h34.42.403419 -0300,
Estimulo_9,23,23,0,2.09999999999999,-2.09999999999999,2.09999999999999,-2.09999999999999,2.2,-2.2,-2.2,2.2,0,1,1,8,,,,,,,,,,,,,,,,,,,,,,,,,,,,,,,,,0,23,23,23,,,,,,,,,,,,,35.74539129999994,,,,,,,,,,,,,,,,,35.73188089999985,35.74539129999994,35.74539129999994,35.74539129999994,36.03524659999948,36.03573929999948,36.046226399999796,36.046226399999796,36.046226399999796,36.334277799999654,,,,,,,,,,,,,,,,,,,,,,,725547,001,2025-03-17_15h34.37.279,Estimulo_ICE,2024.2.4,60.01165426303333,2025-03-17 15h34.42.403419 -0300,
Estimulo_9,24,24,0,1.99999999999999,-1.99999999999999,1.99999999999999,-1.99999999999999,2.2,-2.2,-2.2,2.2,0,1,1,8,,,,,,,,,,,,,,,,,,,,,,,,,,,,,,,,,0,24,24,24,,,,,,,,,,,,,36.34655979999934,,,,,,,,,,,,,,,,,36.33499930000016,36.34655979999934,36.34655979999934,36.34655979999934,36.634323700000095,36.63481849999971,36.64661840000008,36.64661840000008,36.64661840000008,36.934234399999696,,,,,,,,,,,,,,,,,,,,,,,725547,001,2025-03-17_15h34.37.279,Estimulo_ICE,2024.2.4,60.01165426303333,2025-03-17 15h34.42.403419 -0300,
Estimulo_9,25,25,0,1.89999999999999,-1.89999999999999,1.89999999999999,-1.89999999999999,2.2,-2.2,-2.2,2.2,0,1,1,8,,,,,,,,,,,,,,,,,,,,,,,,,,,,,,,,,0,25,25,25,,,,,,,,,,,,,36.946364299999914,,,,,,,,,,,,,,,,,36.93495829999938,36.946364299999914,36.946364299999914,36.946364299999914,37.23129160000008,37.23153349999939,37.24537749999945,37.24537749999945,37.24537749999945,37.53132269999969,37.24537749999945,37.24537749999945,37.24537749999945,37.54540679999991,37.54540679999991,37.54540679999991,,,,,,,,,,,,,,,,,725547,001,2025-03-17_15h34.37.279,Estimulo_ICE,2024.2.4,60.01165426303333,2025-03-17 15h34.42.403419 -0300,
Estimulo_9,26,26,0,1.79999999999999,-1.79999999999999,1.79999999999999,-1.79999999999999,2.2,-2.2,-2.2,2.2,0,1,1,8,,,,,,,,,,,,,,,,,,,,,,,,,,,,,,,,,0,26,26,26,,,,,,,,,,,,,37.54540679999991,,,,,,,,,,,,,,,,,37.53169639999942,37.54540679999991,37.54540679999991,37.54540679999991,37.83128880000004,37.83154159999958,37.845414399999754,37.845414399999754,37.845414399999754,38.134297999999944,37.845414399999754,37.845414399999754,37.845414399999754,,,,,,,,,,,,,,,,,,,,725547,001,2025-03-17_15h34.37.279,Estimulo_ICE,2024.2.4,60.01165426303333,2025-03-17 15h34.42.403419 -0300,
Estimulo_9,27,27,0,1.69999999999999,-1.69999999999999,1.69999999999999,-1.69999999999999,2.2,-2.2,-2.2,2.2,0,1,1,8,,,,,,,,,,,,,,,,,,,,,,,,,,,,,,,,,0,27,27,27,,,,,,,,,,,,,38.1464218000001,,,,,,,,,,,,,,,,,38.13501389999965,38.1464218000001,38.1464218000001,38.1464218000001,38.43419509999967,38.43468109999958,38.446285899999566,38.446285899999566,38.446285899999566,38.73414409999987,,,,,,,,,,,,,,,,,,,,,,,725547,001,2025-03-17_15h34.37.279,Estimulo_ICE,2024.2.4,60.01165426303333,2025-03-17 15h34.42.403419 -0300,
Estimulo_9,28,28,0,1.59999999999999,-1.59999999999999,1.59999999999999,-1.59999999999999,2.2,-2.2,-2.2,2.2,0,1,1,8,,,,,,,,,,,,,,,,,,,,,,,,,,,,,,,,,0,28,28,28,,,,,,,,,,,,,38.74634950000018,,,,,,,,,,,,,,,,,38.734863900000164,38.74634950000018,38.74634950000018,38.74634950000018,39.0313357999994,39.03158649999932,39.04547399999956,39.04547399999956,39.04547399999956,39.3313107999993,39.04547399999956,39.04547399999956,39.04547399999956,39.34537519999958,39.34537519999958,39.34537519999958,,,,,,,,,,,,,,,,,725547,001,2025-03-17_15h34.37.279,Estimulo_ICE,2024.2.4,60.01165426303333,2025-03-17 15h34.42.403419 -0300,
Estimulo_9,29,29,0,1.49999999999999,-1.49999999999998,1.49999999999999,-1.49999999999998,2.2,-2.2,-2.2,2.2,0,1,1,8,,,,,,,,,,,,,,,,,,,,,,,,,,,,,,,,,0,29,29,29,,,,,,,,,,,,,39.34537519999958,,,,,,,,,,,,,,,,,39.33168239999941,39.34537519999958,39.34537519999958,39.34537519999958,39.631233999999495,39.631485599999905,39.645378100000016,39.645378100000016,39.645378100000016,39.93138699999963,39.645378100000016,39.645378100000016,39.645378100000016,39.94513159999951,39.94513159999951,39.94513159999951,,,,,,,,,,,,,,,,,725547,001,2025-03-17_15h34.37.279,Estimulo_ICE,2024.2.4,60.01165426303333,2025-03-17 15h34.42.403419 -0300,
Estimulo_9,30,30,0,1.39999999999999,-1.39999999999998,1.39999999999999,-1.39999999999998,2.2,-2.2,-2.2,2.2,0,1,1,8,,,,,,,,,,,,,,,,,,,,,,,,,,,,,,,,,0,30,30,30,,,,,,,,,,,,,39.94513159999951,,,,,,,,,,,,,,,,,39.93175699999938,39.94513159999951,39.94513159999951,39.94513159999951,40.23110659999929,40.231358299999556,40.245436600000176,40.245436600000176,40.245436600000176,40.53134629999931,40.245436600000176,40.245436600000176,40.245436600000176,40.545309399999496,40.545309399999496,40.545309399999496,,,,,,,,,,,,,,,,,725547,001,2025-03-17_15h34.37.279,Estimulo_ICE,2024.2.4,60.01165426303333,2025-03-17 15h34.42.403419 -0300,
Estimulo_9,31,31,0,1.29999999999999,-1.29999999999998,1.29999999999999,-1.29999999999998,2.2,-2.2,-2.2,2.2,0,1,1,8,,,,,,,,,,,,,,,,,,,,,,,,,,,,,,,,,0,31,31,31,,,,,,,,,,,,,40.545309399999496,,,,,,,,,,,,,,,,,40.53171769999972,40.545309399999496,40.545309399999496,40.545309399999496,40.83127710000008,40.83152869999958,40.84535219999998,40.84535219999998,40.84535219999998,41.13122729999941,40.84535219999998,40.84535219999998,40.84535219999998,41.14541139999983,41.14541139999983,41.14541139999983,,,,,,,,,,,,,,,,,725547,001,2025-03-17_15h34.37.279,Estimulo_ICE,2024.2.4,60.01165426303333,2025-03-17 15h34.42.403419 -0300,
Estimulo_9,32,32,0,1.19999999999999,-1.19999999999998,1.19999999999999,-1.19999999999998,2.2,-2.2,-2.2,2.2,0,1,1,8,,,,,,,,,,,,,,,,,,,,,,,,,,,,,,,,,0,32,32,32,,,,,,,,,,,,,41.14541139999983,,,,,,,,,,,,,,,,,41.13160220000009,41.14541139999983,41.14541139999983,41.14541139999983,41.431334799999604,41.431585899999845,41.445350699999835,41.445350699999835,41.445350699999835,41.73138250000011,41.445350699999835,41.445350699999835,41.445350699999835,41.74536350000017,41.74536350000017,41.74536350000017,,,,,,,,,,,,,,,,,725547,001,2025-03-17_15h34.37.279,Estimulo_ICE,2024.2.4,60.01165426303333,2025-03-17 15h34.42.403419 -0300,
Estimulo_9,33,33,0,1.09999999999999,-1.09999999999998,1.09999999999999,-1.09999999999998,2.2,-2.2,-2.2,2.2,0,1,1,8,,,,,,,,,,,,,,,,,,,,,,,,,,,,,,,,,0,33,33,33,,,,,,,,,,,,,41.74536350000017,,,,,,,,,,,,,,,,,41.73173779999979,41.74536350000017,41.74536350000017,41.74536350000017,42.03132409999944,42.03156839999974,42.04533199999969,42.04533199999969,42.04533199999969,42.33142469999984,42.04533199999969,42.04533199999969,42.04533199999969,42.378046699999686,42.378046699999686,42.378046699999686,,,,,,,,,,,,,,,,,725547,001,2025-03-17_15h34.37.279,Estimulo_ICE,2024.2.4,60.01165426303333,2025-03-17 15h34.42.403419 -0300,
Estimulo_9,1,1,0,,,,,,,,,0,1,1,8,,,,,,,,,,,,,,,,,,,,,,,,,,,,,,,,,,,,,,,,,,,,,,,,,,,,,,,,,,,,,,,42.37379879999935,42.378046699999686,43.84815239999989,,,,,,,,,,,,,,,,,,,,,,,,,,,,,,,,,725547,001,2025-03-17_15h34.37.279,Estimulo_ICE,2024.2.4,60.01165426303333,2025-03-17 15h34.42.403419 -0300,
Estimulo_7,0,0,0,2.2,-2.2,-2.2,2.2,4.4,-4.4,4.4,-4.4,0,2,2,6,,,,,,,,,,,,,,,,,,,,,,,,,0,0,0,0,,,,,,,,,,,,,,,,,,,,,43.94477039999947,,43.8482826999998,43.848678800000016,,,,,,,,,,,,,,,,,,,,,,,,,,,,,,43.9358314000001,43.94477039999947,43.94477039999947,43.94477039999947,44.147653699999864,44.147887699999956,44.16198069999973,44.16198069999973,44.16198069999973,44.46197299999949,44.46197299999949,44.46197299999949,44.44782169999962,,,,725547,001,2025-03-17_15h34.37.279,Estimulo_ICE,2024.2.4,60.01165426303333,2025-03-17 15h34.42.403419 -0300,
Estimulo_7,1,1,0,2.2,-2.2,-2.2,2.2,4.3,-4.3,4.3,-4.3,0,2,2,6,,,,,,,,,,,,,,,,,,,,,,,,,0,1,1,1,,,,,,,,,,,,,,,,,,,,,44.46197299999949,,,,,,,,,,,,,,,,,,,,,,,,,,,,,,,,,44.44820009999967,44.46197299999949,44.46197299999949,44.46197299999949,44.74793899999986,44.748182799999995,44.76197929999944,44.76197929999944,44.76197929999944,45.062011600000005,45.062011600000005,45.062011600000005,45.04784599999948,44.76197929999944,44.76197929999944,44.76197929999944,725547,001,2025-03-17_15h34.37.279,Estimulo_ICE,2024.2.4,60.01165426303333,2025-03-17 15h34.42.403419 -0300,
Estimulo_7,2,2,0,2.2,-2.2,-2.2,2.2,4.2,-4.2,4.2,-4.2,0,2,2,6,,,,,,,,,,,,,,,,,,,,,,,,,0,2,2,2,,,,,,,,,,,,,,,,,,,,,45.062011600000005,,,,,,,,,,,,,,,,,,,,,,,,,,,,,,,,,45.048219499999504,45.062011600000005,45.062011600000005,45.062011600000005,45.34791459999997,45.3481683,45.361943699999756,45.361943699999756,45.361943699999756,45.66191029999936,45.66191029999936,45.66191029999936,45.64776720000009,45.361943699999756,45.361943699999756,45.361943699999756,725547,001,2025-03-17_15h34.37.279,Estimulo_ICE,2024.2.4,60.01165426303333,2025-03-17 15h34.42.403419 -0300,
Estimulo_7,3,3,0,2.2,-2.2,-2.2,2.2,4.1,-4.1,4.1,-4.1,0,2,2,6,,,,,,,,,,,,,,,,,,,,,,,,,0,3,3,3,,,,,,,,,,,,,,,,,,,,,45.66191029999936,,,,,,,,,,,,,,,,,,,,,,,,,,,,,,,,,45.64814269999988,45.66191029999936,45.66191029999936,45.66191029999936,45.95117979999941,45.95162439999967,45.962942099999964,45.962942099999964,45.962942099999964,,,,46.249798400000145,,,,725547,001,2025-03-17_15h34.37.279,Estimulo_ICE,2024.2.4,60.01165426303333,2025-03-17 15h34.42.403419 -0300,
Estimulo_7,4,4,0,2.2,-2.2,-2.2,2.2,4,-4,4,-4,0,2,2,6,,,,,,,,,,,,,,,,,,,,,,,,,0,4,4,4,,,,,,,,,,,,,,,,,,,,,46.26254830000016,,,,,,,,,,,,,,,,,,,,,,,,,,,,,,,,,46.25040569999965,46.26254830000016,46.26254830000016,46.26254830000016,46.54832459999943,46.54862159999993,46.562075599999844,46.562075599999844,46.562075599999844,46.86207430000013,46.86207430000013,46.86207430000013,46.848526599999786,46.562075599999844,46.562075599999844,46.562075599999844,725547,001,2025-03-17_15h34.37.279,Estimulo_ICE,2024.2.4,60.01165426303333,2025-03-17 15h34.42.403419 -0300,
Estimulo_7,5,5,0,2.2,-2.2,-2.2,2.2,3.9,-3.9,3.9,-3.9,0,2,2,6,,,,,,,,,,,,,,,,,,,,,,,,,0,5,5,5,,,,,,,,,,,,,,,,,,,,,46.86207430000013,,,,,,,,,,,,,,,,,,,,,,,,,,,,,,,,,46.848967099999754,46.86207430000013,46.86207430000013,46.86207430000013,47.14845349999996,47.148752299999614,47.162258100000145,47.162258100000145,47.162258100000145,47.46214059999966,47.46214059999966,47.46214059999966,47.44845040000018,47.162258100000145,47.162258100000145,47.162258100000145,725547,001,2025-03-17_15h34.37.279,Estimulo_ICE,2024.2.4,60.01165426303333,2025-03-17 15h34.42.403419 -0300,
Estimulo_7,6,6,0,2.2,-2.2,-2.2,2.2,3.8,-3.8,3.8,-3.8,0,2,2,6,,,,,,,,,,,,,,,,,,,,,,,,,0,6,6,6,,,,,,,,,,,,,,,,,,,,,47.46214059999966,,,,,,,,,,,,,,,,,,,,,,,,,,,,,,,,,47.44889289999992,47.46214059999966,47.46214059999966,47.46214059999966,47.74846069999967,47.74876099999983,47.76207059999979,47.76207059999979,47.76207059999979,48.06206329999986,48.06206329999986,48.06206329999986,48.04850749999969,47.76207059999979,47.76207059999979,47.76207059999979,725547,001,2025-03-17_15h34.37.279,Estimulo_ICE,2024.2.4,60.01165426303333,2025-03-17 15h34.42.403419 -0300,
Estimulo_7,7,7,0,2.2,-2.2,-2.2,2.2,3.7,-3.7,3.7,-3.7,0,2,2,6,,,,,,,,,,,,,,,,,,,,,,,,,0,7,7,7,,,,,,,,,,,,,,,,,,,,,48.06206329999986,,,,,,,,,,,,,,,,,,,,,,,,,,,,,,,,,48.048953299999994,48.06206329999986,48.06206329999986,48.06206329999986,48.348543600000085,48.34884349999993,48.36216520000016,48.36216520000016,48.36216520000016,48.66215729999931,48.66215729999931,48.66215729999931,48.648485799999435,48.36216520000016,48.36216520000016,48.36216520000016,725547,001,2025-03-17_15h34.37.279,Estimulo_ICE,2024.2.4,60.01165426303333,2025-03-17 15h34.42.403419 -0300,
Estimulo_7,8,8,0,2.2,-2.2,-2.2,2.2,3.6,-3.6,3.6,-3.6,0,2,2,6,,,,,,,,,,,,,,,,,,,,,,,,,0,8,8,8,,,,,,,,,,,,,,,,,,,,,48.66215729999931,,,,,,,,,,,,,,,,,,,,,,,,,,,,,,,,,48.64892309999959,48.66215729999931,48.66215729999931,48.66215729999931,48.94827859999987,48.94860719999997,48.9621145000001,48.9621145000001,48.9621145000001,49.262066199999936,49.262066199999936,49.262066199999936,49.24845120000009,48.9621145000001,48.9621145000001,48.9621145000001,725547,001,2025-03-17_15h34.37.279,Estimulo_ICE,2024.2.4,60.01165426303333,2025-03-17 15h34.42.403419 -0300,
Estimulo_7,9,9,0,2.2,-2.2,-2.2,2.2,3.5,-3.5,3.5,-3.5,0,2,2,6,,,,,,,,,,,,,,,,,,,,,,,,,0,9,9,9,,,,,,,,,,,,,,,,,,,,,49.262066199999936,,,,,,,,,,,,,,,,,,,,,,,,,,,,,,,,,49.2488886000001,49.262066199999936,49.262066199999936,49.262066199999936,49.54838860000018,49.54868589999933,49.56216369999947,49.56216369999947,49.56216369999947,49.86207469999954,49.86207469999954,49.86207469999954,49.84843829999954,49.56216369999947,49.56216369999947,49.56216369999947,725547,001,2025-03-17_15h34.37.279,Estimulo_ICE,2024.2.4,60.01165426303333,2025-03-17 15h34.42.403419 -0300,
Estimulo_7,10,10,0,2.2,-2.2,-2.2,2.2,3.39999999999999,-3.39999999999999,3.39999999999999,-3.39999999999999,0,2,2,6,,,,,,,,,,,,,,,,,,,,,,,,,0,10,10,10,,,,,,,,,,,,,,,,,,,,,49.86207469999954,,,,,,,,,,,,,,,,,,,,,,,,,,,,,,,,,49.84887919999983,49.86207469999954,49.86207469999954,49.86207469999954,50.14847579999969,50.14877249999972,50.162091499999406,50.162091499999406,50.162091499999406,50.46214090000012,50.46214090000012,50.46214090000012,50.448470299999826,50.162091499999406,50.162091499999406,50.162091499999406,725547,001,2025-03-17_15h34.37.279,Estimulo_ICE,2024.2.4,60.01165426303333,2025-03-17 15h34.42.403419 -0300,
Estimulo_7,11,11,0,2.2,-2.2,-2.2,2.2,3.29999999999999,-3.29999999999999,3.29999999999999,-3.29999999999999,0,2,2,6,,,,,,,,,,,,,,,,,,,,,,,,,0,11,11,11,,,,,,,,,,,,,,,,,,,,,50.46214090000012,,,,,,,,,,,,,,,,,,,,,,,,,,,,,,,,,50.44891279999956,50.46214090000012,50.46214090000012,50.46214090000012,50.74842840000019,50.74872619999951,50.76211400000011,50.76211400000011,50.76211400000011,51.06202239999948,51.06202239999948,51.06202239999948,51.048332200000004,50.76211400000011,50.76211400000011,50.76211400000011,725547,001,2025-03-17_15h34.37.279,Estimulo_ICE,2024.2.4,60.01165426303333,2025-03-17 15h34.42.403419 -0300,
Estimulo_7,12,12,0,2.2,-2.2,-2.2,2.2,3.19999999999999,-3.19999999999999,3.19999999999999,-3.19999999999999,0,2,2,6,,,,,,,,,,,,,,,,,,,,,,,,,0,12,12,12,,,,,,,,,,,,,,,,,,,,,51.06202239999948,,,,,,,,,,,,,,,,,,,,,,,,,,,,,,,,,51.04877739999938,51.06202239999948,51.06202239999948,51.06202239999948,51.3484398999999,51.34873770000013,51.361959699999716,51.361959699999716,51.361959699999716,51.6620568999997,51.6620568999997,51.6620568999997,51.64845150000019,51.361959699999716,51.361959699999716,51.361959699999716,725547,001,2025-03-17_15h34.37.279,Estimulo_ICE,2024.2.4,60.01165426303333,2025-03-17 15h34.42.403419 -0300,
Estimulo_7,13,13,0,2.2,-2.2,-2.2,2.2,3.09999999999999,-3.09999999999999,3.09999999999999,-3.09999999999999,0,2,2,6,,,,,,,,,,,,,,,,,,,,,,,,,0,13,13,13,,,,,,,,,,,,,,,,,,,,,51.6620568999997,,,,,,,,,,,,,,,,,,,,,,,,,,,,,,,,,51.648895999999695,51.6620568999997,51.6620568999997,51.6620568999997,51.94824979999976,51.94860499999959,51.96227069999986,51.96227069999986,51.96227069999986,52.262110499999835,52.262110499999835,52.262110499999835,52.24846509999952,51.96227069999986,51.96227069999986,51.96227069999986,725547,001,2025-03-17_15h34.37.279,Estimulo_ICE,2024.2.4,60.01165426303333,2025-03-17 15h34.42.403419 -0300,
Estimulo_7,14,14,0,2.2,-2.2,-2.2,2.2,2.99999999999999,-2.99999999999999,2.99999999999999,-2.99999999999999,0,2,2,6,,,,,,,,,,,,,,,,,,,,,,,,,0,14,14,14,,,,,,,,,,,,,,,,,,,,,52.262110499999835,,,,,,,,,,,,,,,,,,,,,,,,,,,,,,,,,52.2489101000001,52.262110499999835,52.262110499999835,52.262110499999835,52.548417199999676,52.548716700000114,52.562108799999805,52.562108799999805,52.562108799999805,52.86210879999999,52.86210879999999,52.86210879999999,52.848431499999606,52.562108799999805,52.562108799999805,52.562108799999805,725547,001,2025-03-17_15h34.37.279,Estimulo_ICE,2024.2.4,60.01165426303333,2025-03-17 15h34.42.403419 -0300,
Estimulo_7,15,15,0,2.2,-2.2,-2.2,2.2,2.89999999999999,-2.89999999999999,2.89999999999999,-2.89999999999999,0,2,2,6,,,,,,,,,,,,,,,,,,,,,,,,,0,15,15,15,,,,,,,,,,,,,,,,,,,,,52.86210879999999,,,,,,,,,,,,,,,,,,,,,,,,,,,,,,,,,52.8488755999997,52.86210879999999,52.86210879999999,52.86210879999999,53.14845559999958,53.14875649999976,53.16212859999996,53.16212859999996,53.16212859999996,53.46207249999952,53.46207249999952,53.46207249999952,53.44835999999941,53.16212859999996,53.16212859999996,53.16212859999996,725547,001,2025-03-17_15h34.37.279,Estimulo_ICE,2024.2.4,60.01165426303333,2025-03-17 15h34.42.403419 -0300,
Estimulo_7,16,16,0,2.2,-2.2,-2.2,2.2,2.79999999999999,-2.79999999999999,2.79999999999999,-2.79999999999999,0,2,2,6,,,,,,,,,,,,,,,,,,,,,,,,,0,16,16,16,,,,,,,,,,,,,,,,,,,,,53.46207249999952,,,,,,,,,,,,,,,,,,,,,,,,,,,,,,,,,53.448804599999676,53.46207249999952,53.46207249999952,53.46207249999952,53.7483444999998,53.74864359999992,53.76206910000019,53.76206910000019,53.76206910000019,54.06193929999972,54.06193929999972,54.06193929999972,54.04780709999977,53.76206910000019,53.76206910000019,53.76206910000019,725547,001,2025-03-17_15h34.37.279,Estimulo_ICE,2024.2.4,60.01165426303333,2025-03-17 15h34.42.403419 -0300,
Estimulo_7,17,17,0,2.2,-2.2,-2.2,2.2,2.69999999999999,-2.69999999999999,2.69999999999999,-2.69999999999999,0,2,2,6,,,,,,,,,,,,,,,,,,,,,,,,,0,17,17,17,,,,,,,,,,,,,,,,,,,,,54.06193929999972,,,,,,,,,,,,,,,,,,,,,,,,,,,,,,,,,54.0481848999998,54.06193929999972,54.06193929999972,54.06193929999972,54.347647499999766,54.34790249999969,54.36200959999951,54.36200959999951,54.36200959999951,54.66188819999934,54.66188819999934,54.66188819999934,54.64772249999987,54.36200959999951,54.36200959999951,54.36200959999951,725547,001,2025-03-17_15h34.37.279,Estimulo_ICE,2024.2.4,60.01165426303333,2025-03-17 15h34.42.403419 -0300,
Estimulo_7,18,18,0,2.2,-2.2,-2.2,2.2,2.59999999999999,-2.59999999999999,2.59999999999999,-2.59999999999999,0,2,2,6,,,,,,,,,,,,,,,,,,,,,,,,,0,18,18,18,,,,,,,,,,,,,,,,,,,,,54.66188819999934,,,,,,,,,,,,,,,,,,,,,,,,,,,,,,,,,54.64809830000013,54.66188819999934,54.66188819999934,54.66188819999934,54.94771579999997,54.94797070000004,54.96195499999976,54.96195499999976,54.96195499999976,55.26184310000008,55.26184310000008,55.26184310000008,55.24784189999991,54.96195499999976,54.96195499999976,54.96195499999976,725547,001,2025-03-17_15h34.37.279,Estimulo_ICE,2024.2.4,60.01165426303333,2025-03-17 15h34.42.403419 -0300,
Estimulo_7,19,19,0,2.2,-2.2,-2.2,2.2,2.49999999999999,-2.49999999999999,2.49999999999999,-2.49999999999999,0,2,2,6,,,,,,,,,,,,,,,,,,,,,,,,,0,19,19,19,,,,,,,,,,,,,,,,,,,,,55.26184310000008,,,,,,,,,,,,,,,,,,,,,,,,,,,,,,,,,55.24821669999983,55.26184310000008,55.26184310000008,55.26184310000008,55.54781319999984,55.54806769999959,55.56193170000006,55.56193170000006,55.56193170000006,55.86186759999964,55.86186759999964,55.86186759999964,55.84779919999983,55.56193170000006,55.56193170000006,55.56193170000006,725547,001,2025-03-17_15h34.37.279,Estimulo_ICE,2024.2.4,60.01165426303333,2025-03-17 15h34.42.403419 -0300,
Estimulo_7,20,20,0,2.2,-2.2,-2.2,2.2,2.39999999999999,-2.39999999999999,2.39999999999999,-2.39999999999999,0,2,2,6,,,,,,,,,,,,,,,,,,,,,,,,,0,20,20,20,,,,,,,,,,,,,,,,,,,,,55.86186759999964,,,,,,,,,,,,,,,,,,,,,,,,,,,,,,,,,55.84817380000004,55.86186759999964,55.86186759999964,55.86186759999964,56.147686299999805,56.147942099999455,56.161868799999866,56.161868799999866,56.161868799999866,56.461909199999354,56.461909199999354,56.461909199999354,56.44762499999979,56.161868799999866,56.161868799999866,56.161868799999866,725547,001,2025-03-17_15h34.37.279,Estimulo_ICE,2024.2.4,60.01165426303333,2025-03-17 15h34.42.403419 -0300,
Estimulo_7,21,21,0,2.2,-2.2,-2.2,2.2,2.29999999999999,-2.29999999999999,2.29999999999999,-2.29999999999999,0,2,2,6,,,,,,,,,,,,,,,,,,,,,,,,,0,21,21,21,,,,,,,,,,,,,,,,,,,,,56.461909199999354,,,,,,,,,,,,,,,,,,,,,,,,,,,,,,,,,56.448003999999855,56.461909199999354,56.461909199999354,56.461909199999354,56.74769689999994,56.74795069999982,56.76192910000009,56.76192910000009,56.76192910000009,57.0617758999997,57.0617758999997,57.0617758999997,57.047885199999655,56.76192910000009,56.76192910000009,56.76192910000009,725547,001,2025-03-17_15h34.37.279,Estimulo_ICE,2024.2.4,60.01165426303333,2025-03-17 15h34.42.403419 -0300,
Estimulo_7,22,22,0,2.2,-2.2,-2.2,2.2,2.19999999999999,-2.19999999999999,2.19999999999999,-2.19999999999999,0,2,2,6,,,,,,,,,,,,,,,,,,,,,,,,,0,22,22,22,,,,,,,,,,,,,,,,,,,,,57.0617758999997,,,,,,,,,,,,,,,,,,,,,,,,,,,,,,,,,57.04828120000002,57.0617758999997,57.0617758999997,57.0617758999997,57.34781229999953,57.34803749999992,57.36183989999972,57.36183989999972,57.36183989999972,57.66174409999985,57.66174409999985,57.66174409999985,57.647770099999434,57.36183989999972,57.36183989999972,57.36183989999972,725547,001,2025-03-17_15h34.37.279,Estimulo_ICE,2024.2.4,60.01165426303333,2025-03-17 15h34.42.403419 -0300,
Estimulo_7,23,23,0,2.2,-2.2,-2.2,2.2,2.09999999999999,-2.09999999999999,2.09999999999999,-2.09999999999999,0,2,2,6,,,,,,,,,,,,,,,,,,,,,,,,,0,23,23,23,,,,,,,,,,,,,,,,,,,,,57.66174409999985,,,,,,,,,,,,,,,,,,,,,,,,,,,,,,,,,57.64810539999962,57.66174409999985,57.66174409999985,57.66174409999985,57.949012299999595,57.94926579999992,57.9619404999994,57.9619404999994,57.9619404999994,,,,58.25286739999956,57.9619404999994,57.9619404999994,57.9619404999994,725547,001,2025-03-17_15h34.37.279,Estimulo_ICE,2024.2.4,60.01165426303333,2025-03-17 15h34.42.403419 -0300,
Estimulo_7,24,24,0,2.2,-2.2,-2.2,2.2,1.99999999999999,-1.99999999999999,1.99999999999999,-1.99999999999999,0,2,2,6,,,,,,,,,,,,,,,,,,,,,,,,,0,24,24,24,,,,,,,,,,,,,,,,,,,,,58.26359820000016,,,,,,,,,,,,,,,,,,,,,,,,,,,,,,,,,58.253825799999504,58.26359820000016,58.26359820000016,58.26359820000016,58.54811849999987,58.54842269999972,58.56207819999963,58.56207819999963,58.56207819999963,58.862039300000106,58.862039300000106,58.862039300000106,58.84836180000002,,,,725547,001,2025-03-17_15h34.37.279,Estimulo_ICE,2024.2.4,60.01165426303333,2025-03-17 15h34.42.403419 -0300,
Estimulo_7,25,25,0,2.2,-2.2,-2.2,2.2,1.89999999999999,-1.89999999999999,1.89999999999999,-1.89999999999999,0,2,2,6,,,,,,,,,,,,,,,,,,,,,,,,,0,25,25,25,,,,,,,,,,,,,,,,,,,,,58.862039300000106,,,,,,,,,,,,,,,,,,,,,,,,,,,,,,,,,58.8488054999998,58.862039300000106,58.862039300000106,58.862039300000106,59.14774789999956,59.14799940000012,59.16195090000019,59.16195090000019,59.16195090000019,59.46177859999989,59.46177859999989,59.46177859999989,59.447750299999825,59.16195090000019,59.16195090000019,59.16195090000019,725547,001,2025-03-17_15h34.37.279,Estimulo_ICE,2024.2.4,60.01165426303333,2025-03-17 15h34.42.403419 -0300,
Estimulo_7,26,26,0,2.2,-2.2,-2.2,2.2,1.79999999999999,-1.79999999999999,1.79999999999999,-1.79999999999999,0,2,2,6,,,,,,,,,,,,,,,,,,,,,,,,,0,26,26,26,,,,,,,,,,,,,,,,,,,,,59.46177859999989,,,,,,,,,,,,,,,,,,,,,,,,,,,,,,,,,59.448124699999426,59.46177859999989,59.46177859999989,59.46177859999989,59.74770249999983,59.747945600000094,59.76183789999959,59.76183789999959,59.76183789999959,60.06191519999993,60.06191519999993,60.06191519999993,60.04770819999976,59.76183789999959,59.76183789999959,59.76183789999959,725547,001,2025-03-17_15h34.37.279,Estimulo_ICE,2024.2.4,60.01165426303333,2025-03-17 15h34.42.403419 -0300,
Estimulo_7,27,27,0,2.2,-2.2,-2.2,2.2,1.69999999999999,-1.69999999999999,1.69999999999999,-1.69999999999999,0,2,2,6,,,,,,,,,,,,,,,,,,,,,,,,,0,27,27,27,,,,,,,,,,,,,,,,,,,,,60.06191519999993,,,,,,,,,,,,,,,,,,,,,,,,,,,,,,,,,60.04808289999983,60.06191519999993,60.06191519999993,60.06191519999993,60.34801030000017,60.348263199999565,60.36170349999975,60.36170349999975,60.36170349999975,60.66190740000002,60.66190740000002,60.66190740000002,60.6477918999999,60.36170349999975,60.36170349999975,60.36170349999975,725547,001,2025-03-17_15h34.37.279,Estimulo_ICE,2024.2.4,60.01165426303333,2025-03-17 15h34.42.403419 -0300,
Estimulo_7,28,28,0,2.2,-2.2,-2.2,2.2,1.59999999999999,-1.59999999999999,1.59999999999999,-1.59999999999999,0,2,2,6,,,,,,,,,,,,,,,,,,,,,,,,,0,28,28,28,,,,,,,,,,,,,,,,,,,,,60.66190740000002,,,,,,,,,,,,,,,,,,,,,,,,,,,,,,,,,60.6481660999998,60.66190740000002,60.66190740000002,60.66190740000002,60.94771390000005,60.94797169999947,60.96162439999989,60.96162439999989,60.96162439999989,61.26182559999961,61.26182559999961,61.26182559999961,61.24762749999991,60.96162439999989,60.96162439999989,60.96162439999989,725547,001,2025-03-17_15h34.37.279,Estimulo_ICE,2024.2.4,60.01165426303333,2025-03-17 15h34.42.403419 -0300,
Estimulo_7,29,29,0,2.2,-2.2,-2.2,2.2,1.49999999999998,-1.49999999999998,1.49999999999998,-1.49999999999998,0,2,2,6,,,,,,,,,,,,,,,,,,,,,,,,,0,29,29,29,,,,,,,,,,,,,,,,,,,,,61.26182559999961,,,,,,,,,,,,,,,,,,,,,,,,,,,,,,,,,61.248005499999636,61.26182559999961,61.26182559999961,61.26182559999961,61.548454599999786,61.54870779999965,61.56243360000008,61.56243360000008,61.56243360000008,61.86189299999933,61.86189299999933,61.86189299999933,61.84781849999945,61.56243360000008,61.56243360000008,61.56243360000008,725547,001,2025-03-17_15h34.37.279,Estimulo_ICE,2024.2.4,60.01165426303333,2025-03-17 15h34.42.403419 -0300,
Estimulo_7,30,30,0,2.2,-2.2,-2.2,2.2,1.39999999999998,-1.39999999999998,1.39999999999998,-1.39999999999998,0,2,2,6,,,,,,,,,,,,,,,,,,,,,,,,,0,30,30,30,,,,,,,,,,,,,,,,,,,,,61.86189299999933,,,,,,,,,,,,,,,,,,,,,,,,,,,,,,,,,61.848195900000064,61.86189299999933,61.86189299999933,61.86189299999933,62.14782219999961,62.14807579999979,62.16163629999937,62.16163629999937,62.16163629999937,62.46186719999969,62.46186719999969,62.46186719999969,62.44762549999996,62.16163629999937,62.16163629999937,62.16163629999937,725547,001,2025-03-17_15h34.37.279,Estimulo_ICE,2024.2.4,60.01165426303333,2025-03-17 15h34.42.403419 -0300,
Estimulo_7,31,31,0,2.2,-2.2,-2.2,2.2,1.29999999999998,-1.29999999999998,1.29999999999998,-1.29999999999998,0,2,2,6,,,,,,,,,,,,,,,,,,,,,,,,,0,31,31,31,,,,,,,,,,,,,,,,,,,,,62.46186719999969,,,,,,,,,,,,,,,,,,,,,,,,,,,,,,,,,62.448003999999855,62.46186719999969,62.46186719999969,62.46186719999969,62.747674899999765,62.747918399999435,62.761983899999905,62.761983899999905,62.761983899999905,63.06180189999941,63.06180189999941,63.06180189999941,63.04772039999989,62.761983899999905,62.761983899999905,62.761983899999905,725547,001,2025-03-17_15h34.37.279,Estimulo_ICE,2024.2.4,60.01165426303333,2025-03-17 15h34.42.403419 -0300,
Estimulo_7,32,32,0,2.2,-2.2,-2.2,2.2,1.19999999999998,-1.19999999999998,1.19999999999998,-1.19999999999998,0,2,2,6,,,,,,,,,,,,,,,,,,,,,,,,,0,32,32,32,,,,,,,,,,,,,,,,,,,,,63.06180189999941,,,,,,,,,,,,,,,,,,,,,,,,,,,,,,,,,63.04809870000008,63.06180189999941,63.06180189999941,63.06180189999941,63.34776819999934,63.34802200000013,63.36165119999987,63.36165119999987,63.36165119999987,63.66171349999968,63.66171349999968,63.66171349999968,63.647761599999285,63.36165119999987,63.36165119999987,63.36165119999987,725547,001,2025-03-17_15h34.37.279,Estimulo_ICE,2024.2.4,60.01165426303333,2025-03-17 15h34.42.403419 -0300,
Estimulo_7,33,33,0,2.2,-2.2,-2.2,2.2,1.09999999999998,-1.09999999999998,1.09999999999998,-1.09999999999998,0,2,2,6,,,,,,,,,,,,,,,,,,,,,,,,,0,33,33,33,,,,,,,,,,,,,,,,,,,,,63.66171349999968,,,,,,,,,,,,,,,,,,,,,,,,,,,,,,,,,63.64813879999929,63.66171349999968,63.66171349999968,63.66171349999968,63.947733799999696,63.9480967999998,63.96318539999993,63.96318539999993,63.96318539999993,,,,64.2505844999996,63.96318539999993,63.96318539999993,63.96318539999993,725547,001,2025-03-17_15h34.37.279,Estimulo_ICE,2024.2.4,60.01165426303333,2025-03-17 15h34.42.403419 -0300,
Estimulo_7,2,2,0,,,,,,,,,0,2,2,6,,,,,,,,,,,,,,,,,,,,,,,,,,,,,,,,,,,,,,,,,,,,,,,,,,,,,,,,,,,,,,,64.33823389999998,64.34462119999989,65.7638821999999,,,,,,,,,,,,,,,,,,,,,,,,,,,,,,,,,725547,001,2025-03-17_15h34.37.279,Estimulo_ICE,2024.2.4,60.01165426303333,2025-03-17 15h34.42.403419 -0300,
Estimulo_12,0,0,0,2.2,-2.2,-2.2,2.2,1.09999999999998,-1.09999999999998,1.09999999999998,-1.09999999999998,0,3,3,11,,,,,,,,,,,,,,,,,,,,,,,,,,,,,,,,,,,,,,,,,,,,,0,0,0,0,65.9113069999994,,65.76398960000006,65.76432769999974,,,,,,,,,,,,,,65.9072843999993,65.9113069999994,65.9113069999994,65.9113069999994,66.08054879999963,66.08078889999979,66.09513119999974,66.09513119999974,66.09513119999974,66.38056830000005,,,,,,,,,,,,,,,,,,,,,,,725547,001,2025-03-17_15h34.37.279,Estimulo_ICE,2024.2.4,60.01165426303333,2025-03-17 15h34.42.403419 -0300,
Estimulo_12,1,1,0,2.2,-2.2,-2.2,2.2,1.19999999999998,-1.19999999999998,1.19999999999998,-1.19999999999998,0,3,3,11,,,,,,,,,,,,,,,,,,,,,,,,,,,,,,,,,,,,,,,,,,,,,0,1,1,1,66.39487839999947,,,,,,,,,,,,,,,,,66.38093149999986,66.39487839999947,66.39487839999947,66.39487839999947,66.68049819999942,66.68073679999998,66.69520560000001,66.69520560000001,66.69520560000001,66.98065829999996,,,,,,,,,,,,,,,,,,,,,,,725547,001,2025-03-17_15h34.37.279,Estimulo_ICE,2024.2.4,60.01165426303333,2025-03-17 15h34.42.403419 -0300,
,2,2,0,2.2,-2.2,-2.2,2.2,1.29999999999998,-1.29999999999998,1.29999999999998,-1.29999999999998,,,,,,,,,,,,,,,,,,,,,,,,,,,,,,,,,,,,,,,,,,,,,,,,,0,2,2,2,66.99514970000018,,,,,,,,,,,,,,,,,66.98102609999933,66.99514970000018,66.99514970000018,66.99514970000018,67.28063789999942,67.2808771,67.29517279999982,67.29517279999982,67.29517279999982,,,,,,,,,,,,,,,,,,,,,,,,,,,,,,,
