LoopName,thisN,thisTrialN,thisRepN,px1,px2,px3,px4,py1,py2,py3,py4,MainLoop.thisRepN,MainLoop.thisTrialN,MainLoop.thisN,MainLoop.thisIndex,loop_1.thisRepN,loop_1.thisTrialN,loop_1.thisN,loop_1.thisIndex,loop_2.thisRepN,loop_2.thisTrialN,loop_2.thisN,loop_2.thisIndex,loop_3.thisRepN,loop_3.thisTrialN,loop_3.thisN,loop_3.thisIndex,loop_4.thisRepN,loop_4.thisTrialN,loop_4.thisN,loop_4.thisIndex,loop_5.thisRepN,loop_5.thisTrialN,loop_5.thisN,loop_5.thisIndex,loop_6.thisRepN,loop_6.thisTrialN,loop_6.thisN,loop_6.thisIndex,loop_7.thisRepN,loop_7.thisTrialN,loop_7.thisN,loop_7.thisIndex,loop_8.thisRepN,loop_8.thisTrialN,loop_8.thisN,loop_8.thisIndex,loop_9.thisRepN,loop_9.thisTrialN,loop_9.thisN,loop_9.thisIndex,loop_10.thisRepN,loop_10.thisTrialN,loop_10.thisN,loop_10.thisIndex,loop_11.thisRepN,loop_11.thisTrialN,loop_11.thisN,loop_11.thisIndex,loop_12.thisRepN,loop_12.thisTrialN,loop_12.thisN,loop_12.thisIndex,thisRow.t,notes,codigo.started,codigo.stopped,trial.started,image.started,image_2.started,polygon.started,trial.stopped,trial_2.started,image_3.started,image_4.started,polygon_2.started,trial_2.stopped,image_3.stopped,image_4.stopped,polygon_2.stopped,_intertrial_interval_.started,polygon_5.started,_intertrial_interval_.stopped,image.stopped,image_2.stopped,polygon.stopped,trial_3.started,image_5.started,image_6.started,polygon_3.started,trial_3.stopped,trial_4.started,image_7.started,image_8.started,polygon_4.started,trial_4.stopped,image_5.stopped,image_6.stopped,polygon_3.stopped,image_7.stopped,image_8.stopped,polygon_4.stopped,participant,session,date,expName,psychopyVersion,frameRate,expStart,
Estimulo_2,0,0,0,1.1,-1.1,1.1,-1.1,2.2,-2.2,-2.2,2.2,0,0,0,2,,,,,0,0,0,0,,,,,,,,,,,,,,,,,,,,,,,,,,,,,,,,,,,,,,,,,0.06416300000000774,,0.031586000000061176,0.031984900000225025,0.05453070000021398,0.06416300000000774,0.06416300000000774,0.06416300000000774,0.33352370000011433,0.33383620000040537,0.34673960000009174,0.34673960000009174,0.34673960000009174,0.6324430000004213,,,,,,,,,,,,,,,,,,,,,,,,,,733003,001,2025-03-17_14h54.29.595,Estimulo_ICE,2024.2.4,59.97782020203209,2025-03-17 14h54.35.589250 -0300,
Estimulo_2,1,1,0,1.2,-1.2,1.2,-1.2,2.2,-2.2,-2.2,2.2,0,0,0,2,,,,,0,1,1,1,,,,,,,,,,,,,,,,,,,,,,,,,,,,,,,,,,,,,,,,,0.6468343000001369,,,,0.6327895000003991,0.6468343000001369,0.6468343000001369,0.6468343000001369,0.9325007000002188,0.9327370000000883,0.9468037000001459,0.9468037000001459,0.9468037000001459,1.2323205000002417,,,,,,,,,,,,,,,,,,,,,,,,,,733003,001,2025-03-17_14h54.29.595,Estimulo_ICE,2024.2.4,59.97782020203209,2025-03-17 14h54.35.589250 -0300,
Estimulo_2,2,2,0,1.3,-1.3,1.3,-1.3,2.2,-2.2,-2.2,2.2,0,0,0,2,,,,,0,2,2,2,,,,,,,,,,,,,,,,,,,,,,,,,,,,,,,,,,,,,,,,,1.2468507000003228,,,,1.232665100000304,1.2468507000003228,1.2468507000003228,1.2468507000003228,1.5323930000004111,1.5326286000004075,1.546716600000309,1.546716600000309,1.546716600000309,1.8324173000000883,,,,,,,,,,,,,,,,,,,,,,,,,,733003,001,2025-03-17_14h54.29.595,Estimulo_ICE,2024.2.4,59.97782020203209,2025-03-17 14h54.35.589250 -0300,
Estimulo_2,3,3,0,1.4,-1.4,1.4,-1.4,2.2,-2.2,-2.2,2.2,0,0,0,2,,,,,0,3,3,3,,,,,,,,,,,,,,,,,,,,,,,,,,,,,,,,,,,,,,,,,1.8467932000003202,,,,1.8327620000000024,1.8467932000003202,1.8467932000003202,1.8467932000003202,2.1324150000000373,2.1326484000001074,2.1468274000003476,2.1468274000003476,2.1468274000003476,2.4323757000001933,,,,,,,,,,,,,,,,,,,,,,,,,,733003,001,2025-03-17_14h54.29.595,Estimulo_ICE,2024.2.4,59.97782020203209,2025-03-17 14h54.35.589250 -0300,
Estimulo_2,4,4,0,1.5,-1.5,1.5,-1.5,2.2,-2.2,-2.2,2.2,0,0,0,2,,,,,0,4,4,4,,,,,,,,,,,,,,,,,,,,,,,,,,,,,,,,,,,,,,,,,2.4468783000002077,,,,2.4327187000003505,2.4468783000002077,2.4468783000002077,2.4468783000002077,2.73211050000009,2.732375700000375,2.746801900000264,2.746801900000264,2.746801900000264,3.0323232000000644,,,,,,,,,,,,,,,,,,,,,,,,,,733003,001,2025-03-17_14h54.29.595,Estimulo_ICE,2024.2.4,59.97782020203209,2025-03-17 14h54.35.589250 -0300,
Estimulo_2,5,5,0,1.6,-1.6,1.6,-1.6,2.2,-2.2,-2.2,2.2,0,0,0,2,,,,,0,5,5,5,,,,,,,,,,,,,,,,,,,,,,,,,,,,,,,,,,,,,,,,,3.046925700000429,,,,3.032669100000021,3.046925700000429,3.046925700000429,3.046925700000429,3.3323966000002656,3.332630800000061,3.3466146000000663,3.3466146000000663,3.3466146000000663,3.6325322000002416,,,,,,,,,,,,,,,,,,,,,,,,,,733003,001,2025-03-17_14h54.29.595,Estimulo_ICE,2024.2.4,59.97782020203209,2025-03-17 14h54.35.589250 -0300,
Estimulo_2,6,6,0,1.7,-1.7,1.7,-1.7,2.2,-2.2,-2.2,2.2,0,0,0,2,,,,,0,6,6,6,,,,,,,,,,,,,,,,,,,,,,,,,,,,,,,,,,,,,,,,,3.6465736000000106,,,,3.6328757000001133,3.6465736000000106,3.6465736000000106,3.6465736000000106,3.9324585000003935,3.9326953000004323,3.9466239000003043,3.9466239000003043,3.9466239000003043,4.232421300000169,,,,,,,,,,,,,,,,,,,,,,,,,,733003,001,2025-03-17_14h54.29.595,Estimulo_ICE,2024.2.4,59.97782020203209,2025-03-17 14h54.35.589250 -0300,
Estimulo_2,7,7,0,1.8,-1.8,1.8,-1.8,2.2,-2.2,-2.2,2.2,0,0,0,2,,,,,0,7,7,7,,,,,,,,,,,,,,,,,,,,,,,,,,,,,,,,,,,,,,,,,4.246822100000372,,,,4.232771800000137,4.246822100000372,4.246822100000372,4.246822100000372,4.532234600000265,4.5324712000001455,4.546796200000244,4.546796200000244,4.546796200000244,4.832488300000023,,,,,,,,,,,,,,,,,,,,,,,,,,733003,001,2025-03-17_14h54.29.595,Estimulo_ICE,2024.2.4,59.97782020203209,2025-03-17 14h54.35.589250 -0300,
Estimulo_2,8,8,0,1.9,-1.9,1.9,-1.9,2.2,-2.2,-2.2,2.2,0,0,0,2,,,,,0,8,8,8,,,,,,,,,,,,,,,,,,,,,,,,,,,,,,,,,,,,,,,,,4.846814600000016,,,,4.832835100000011,4.846814600000016,4.846814600000016,4.846814600000016,5.132339900000261,5.132577100000162,5.146882500000174,5.146882500000174,5.146882500000174,5.432237900000018,,,,,,,,,,,,,,,,,,,,,,,,,,733003,001,2025-03-17_14h54.29.595,Estimulo_ICE,2024.2.4,59.97782020203209,2025-03-17 14h54.35.589250 -0300,
Estimulo_2,9,9,0,2,-2,2,-2,2.2,-2.2,-2.2,2.2,0,0,0,2,,,,,0,9,9,9,,,,,,,,,,,,,,,,,,,,,,,,,,,,,,,,,,,,,,,,,5.446625300000051,,,,5.432584300000144,5.446625300000051,5.446625300000051,5.446625300000051,5.732391900000039,5.732627800000046,5.746810100000403,5.746810100000403,5.746810100000403,6.0324171000002025,,,,,,,,,,,,,,,,,,,,,,,,,,733003,001,2025-03-17_14h54.29.595,Estimulo_ICE,2024.2.4,59.97782020203209,2025-03-17 14h54.35.589250 -0300,
Estimulo_2,10,10,0,2.1,-2.1,2.1,-2.1,2.2,-2.2,-2.2,2.2,0,0,0,2,,,,,0,10,10,10,,,,,,,,,,,,,,,,,,,,,,,,,,,,,,,,,,,,,,,,,6.046770400000241,,,,6.032765400000244,6.046770400000241,6.046770400000241,6.046770400000241,6.332374800000252,6.332611300000281,6.346751700000368,6.346751700000368,6.346751700000368,6.6323912000002565,,,,,,,,,,,,,,,,,,,,,,,,,,733003,001,2025-03-17_14h54.29.595,Estimulo_ICE,2024.2.4,59.97782020203209,2025-03-17 14h54.35.589250 -0300,
Estimulo_2,11,11,0,2.2,-2.2,2.2,-2.2,2.2,-2.2,-2.2,2.2,0,0,0,2,,,,,0,11,11,11,,,,,,,,,,,,,,,,,,,,,,,,,,,,,,,,,,,,,,,,,6.6467609000001175,,,,6.6327329000000645,6.6467609000001175,6.6467609000001175,6.6467609000001175,6.932403500000419,6.932640500000161,6.9466073000003234,6.9466073000003234,6.9466073000003234,7.232173200000034,,,,,,,,,,,,,,,,,,,,,,,,,,733003,001,2025-03-17_14h54.29.595,Estimulo_ICE,2024.2.4,59.97782020203209,2025-03-17 14h54.35.589250 -0300,
Estimulo_2,12,12,0,2.3,-2.3,2.3,-2.3,2.2,-2.2,-2.2,2.2,0,0,0,2,,,,,0,12,12,12,,,,,,,,,,,,,,,,,,,,,,,,,,,,,,,,,,,,,,,,,7.246837000000141,,,,7.232519700000012,7.246837000000141,7.246837000000141,7.246837000000141,7.532377500000166,7.532615600000099,7.546591799999987,7.546591799999987,7.546591799999987,7.832357700000102,,,,,,,,,,,,,,,,,,,,,,,,,,733003,001,2025-03-17_14h54.29.595,Estimulo_ICE,2024.2.4,59.97782020203209,2025-03-17 14h54.35.589250 -0300,
Estimulo_2,13,13,0,2.4,-2.4,2.4,-2.4,2.2,-2.2,-2.2,2.2,0,0,0,2,,,,,0,13,13,13,,,,,,,,,,,,,,,,,,,,,,,,,,,,,,,,,,,,,,,,,7.846780700000181,,,,7.832702900000186,7.846780700000181,7.846780700000181,7.846780700000181,8.132200100000318,8.132440200000019,8.146834600000147,8.146834600000147,8.146834600000147,8.432287000000088,,,,,,,,,,,,,,,,,,,,,,,,,,733003,001,2025-03-17_14h54.29.595,Estimulo_ICE,2024.2.4,59.97782020203209,2025-03-17 14h54.35.589250 -0300,
Estimulo_2,14,14,0,2.5,-2.5,2.5,-2.5,2.2,-2.2,-2.2,2.2,0,0,0,2,,,,,0,14,14,14,,,,,,,,,,,,,,,,,,,,,,,,,,,,,,,,,,,,,,,,,8.446563400000286,,,,8.43260840000039,8.446563400000286,8.446563400000286,8.446563400000286,8.732306900000367,8.732540100000278,8.746850300000006,8.746850300000006,8.746850300000006,9.032197500000166,,,,,,,,,,,,,,,,,,,,,,,,,,733003,001,2025-03-17_14h54.29.595,Estimulo_ICE,2024.2.4,59.97782020203209,2025-03-17 14h54.35.589250 -0300,
Estimulo_2,15,15,0,2.6,-2.6,2.6,-2.6,2.2,-2.2,-2.2,2.2,0,0,0,2,,,,,0,15,15,15,,,,,,,,,,,,,,,,,,,,,,,,,,,,,,,,,,,,,,,,,9.046859200000199,,,,9.032544099999996,9.046859200000199,9.046859200000199,9.046859200000199,9.332329400000162,9.332563100000243,9.346759700000348,9.346759700000348,9.346759700000348,9.632423900000049,,,,,,,,,,,,,,,,,,,,,,,,,,733003,001,2025-03-17_14h54.29.595,Estimulo_ICE,2024.2.4,59.97782020203209,2025-03-17 14h54.35.589250 -0300,
Estimulo_2,16,16,0,2.7,-2.7,2.7,-2.7,2.2,-2.2,-2.2,2.2,0,0,0,2,,,,,0,16,16,16,,,,,,,,,,,,,,,,,,,,,,,,,,,,,,,,,,,,,,,,,9.64675010000019,,,,9.632769400000143,9.64675010000019,9.64675010000019,9.64675010000019,9.932317400000102,9.932552300000225,9.946588300000258,9.946588300000258,9.946588300000258,10.232354400000077,,,,,,,,,,,,,,,,,,,,,,,,,,733003,001,2025-03-17_14h54.29.595,Estimulo_ICE,2024.2.4,59.97782020203209,2025-03-17 14h54.35.589250 -0300,
Estimulo_2,17,17,0,2.8,-2.8,2.8,-2.8,2.2,-2.2,-2.2,2.2,0,0,0,2,,,,,0,17,17,17,,,,,,,,,,,,,,,,,,,,,,,,,,,,,,,,,,,,,,,,,10.246581400000196,,,,10.23269930000015,10.246581400000196,10.246581400000196,10.246581400000196,10.532208100000389,10.532445100000132,10.546729900000173,10.546729900000173,10.546729900000173,10.83234900000025,,,,,,,,,,,,,,,,,,,,,,,,,,733003,001,2025-03-17_14h54.29.595,Estimulo_ICE,2024.2.4,59.97782020203209,2025-03-17 14h54.35.589250 -0300,
Estimulo_2,18,18,0,2.9,-2.9,2.9,-2.9,2.2,-2.2,-2.2,2.2,0,0,0,2,,,,,0,18,18,18,,,,,,,,,,,,,,,,,,,,,,,,,,,,,,,,,,,,,,,,,10.846740500000124,,,,10.832692500000121,10.846740500000124,10.846740500000124,10.846740500000124,11.132210600000235,11.132449000000179,11.146761000000424,11.146761000000424,11.146761000000424,11.433790200000203,,,,,,,,,,,,,,,,,,,,,,,,,,733003,001,2025-03-17_14h54.29.595,Estimulo_ICE,2024.2.4,59.97782020203209,2025-03-17 14h54.35.589250 -0300,
Estimulo_2,19,19,0,3,-3,3,-3,2.2,-2.2,-2.2,2.2,0,0,0,2,,,,,0,19,19,19,,,,,,,,,,,,,,,,,,,,,,,,,,,,,,,,,,,,,,,,,11.446680200000173,,,,11.434262900000249,11.446680200000173,11.446680200000173,11.446680200000173,11.732268300000214,11.732510600000296,11.746486900000036,11.746486900000036,11.746486900000036,12.032339400000183,12.047516800000267,12.047516800000267,12.047516800000267,,,,,,,,,,,,,,,,,,,,,,,733003,001,2025-03-17_14h54.29.595,Estimulo_ICE,2024.2.4,59.97782020203209,2025-03-17 14h54.35.589250 -0300,
Estimulo_2,20,20,0,3.1,-3.1,3.1,-3.1,2.2,-2.2,-2.2,2.2,0,0,0,2,,,,,0,20,20,20,,,,,,,,,,,,,,,,,,,,,,,,,,,,,,,,,,,,,,,,,12.047516800000267,,,,12.032702000000427,12.047516800000267,12.047516800000267,12.047516800000267,12.334965600000032,12.33538980000003,12.347465800000009,12.347465800000009,12.347465800000009,12.632544000000053,,,,,,,,,,,,,,,,,,,,,,,,,,733003,001,2025-03-17_14h54.29.595,Estimulo_ICE,2024.2.4,59.97782020203209,2025-03-17 14h54.35.589250 -0300,
Estimulo_2,21,21,0,3.2,-3.2,3.2,-3.2,2.2,-2.2,-2.2,2.2,0,0,0,2,,,,,0,21,21,21,,,,,,,,,,,,,,,,,,,,,,,,,,,,,,,,,,,,,,,,,12.646729600000072,,,,12.632942000000185,12.646729600000072,12.646729600000072,12.646729600000072,12.932278600000245,12.932515899999999,12.946726100000433,12.946726100000433,12.946726100000433,13.232338800000434,,,,,,,,,,,,,,,,,,,,,,,,,,733003,001,2025-03-17_14h54.29.595,Estimulo_ICE,2024.2.4,59.97782020203209,2025-03-17 14h54.35.589250 -0300,
Estimulo_2,22,22,0,3.3,-3.3,3.3,-3.3,2.2,-2.2,-2.2,2.2,0,0,0,2,,,,,0,22,22,22,,,,,,,,,,,,,,,,,,,,,,,,,,,,,,,,,,,,,,,,,13.246574100000089,,,,13.23268250000001,13.246574100000089,13.246574100000089,13.246574100000089,13.532296100000167,13.532531900000322,13.546549099999993,13.546549099999993,13.546549099999993,13.832111500000337,,,,,,,,,,,,,,,,,,,,,,,,,,733003,001,2025-03-17_14h54.29.595,Estimulo_ICE,2024.2.4,59.97782020203209,2025-03-17 14h54.35.589250 -0300,
Estimulo_2,23,23,0,3.4,-3.4,3.4,-3.4,2.2,-2.2,-2.2,2.2,0,0,0,2,,,,,0,23,23,23,,,,,,,,,,,,,,,,,,,,,,,,,,,,,,,,,,,,,,,,,13.846757100000104,,,,13.83245850000003,13.846757100000104,13.846757100000104,13.846757100000104,14.13225870000042,14.132495700000163,14.146852800000033,14.146852800000033,14.146852800000033,14.432391400000142,,,,,,,,,,,,,,,,,,,,,,,,,,733003,001,2025-03-17_14h54.29.595,Estimulo_ICE,2024.2.4,59.97782020203209,2025-03-17 14h54.35.589250 -0300,
Estimulo_2,24,24,0,3.5,-3.5,3.5,-3.5,2.2,-2.2,-2.2,2.2,0,0,0,2,,,,,0,24,24,24,,,,,,,,,,,,,,,,,,,,,,,,,,,,,,,,,,,,,,,,,14.446698300000207,,,,14.432743800000026,14.446698300000207,14.446698300000207,14.446698300000207,14.732210600000144,14.732443500000045,14.746828800000003,14.746828800000003,14.746828800000003,15.032128900000316,,,,,,,,,,,,,,,,,,,,,,,,,,733003,001,2025-03-17_14h54.29.595,Estimulo_ICE,2024.2.4,59.97782020203209,2025-03-17 14h54.35.589250 -0300,
Estimulo_2,25,25,0,3.6,-3.6,3.6,-3.6,2.2,-2.2,-2.2,2.2,0,0,0,2,,,,,0,25,25,25,,,,,,,,,,,,,,,,,,,,,,,,,,,,,,,,,,,,,,,,,15.046691600000031,,,,15.032473100000061,15.046691600000031,15.046691600000031,15.046691600000031,15.332282700000178,15.332528600000387,15.346748000000389,15.346748000000389,15.346748000000389,15.632172300000093,,,,,,,,,,,,,,,,,,,,,,,,,,733003,001,2025-03-17_14h54.29.595,Estimulo_ICE,2024.2.4,59.97782020203209,2025-03-17 14h54.35.589250 -0300,
Estimulo_2,26,26,0,3.7,-3.7,3.7,-3.7,2.2,-2.2,-2.2,2.2,0,0,0,2,,,,,0,26,26,26,,,,,,,,,,,,,,,,,,,,,,,,,,,,,,,,,,,,,,,,,15.646478100000422,,,,15.63251500000024,15.646478100000422,15.646478100000422,15.646478100000422,15.932282100000066,15.9325187000004,15.946698100000049,15.946698100000049,15.946698100000049,16.23230190000004,,,,,,,,,,,,,,,,,,,,,,,,,,733003,001,2025-03-17_14h54.29.595,Estimulo_ICE,2024.2.4,59.97782020203209,2025-03-17 14h54.35.589250 -0300,
Estimulo_2,27,27,0,3.8,-3.8,3.8,-3.8,2.2,-2.2,-2.2,2.2,0,0,0,2,,,,,0,27,27,27,,,,,,,,,,,,,,,,,,,,,,,,,,,,,,,,,,,,,,,,,16.247270700000172,,,,16.23264930000005,16.247270700000172,16.247270700000172,16.247270700000172,16.532232600000043,16.53246580000041,16.546690300000137,16.546690300000137,16.546690300000137,16.832311800000298,,,,,,,,,,,,,,,,,,,,,,,,,,733003,001,2025-03-17_14h54.29.595,Estimulo_ICE,2024.2.4,59.97782020203209,2025-03-17 14h54.35.589250 -0300,
Estimulo_2,28,28,0,3.9,-3.9,3.9,-3.9,2.2,-2.2,-2.2,2.2,0,0,0,2,,,,,0,28,28,28,,,,,,,,,,,,,,,,,,,,,,,,,,,,,,,,,,,,,,,,,16.846607600000425,,,,16.832654100000127,16.846607600000425,16.846607600000425,16.846607600000425,17.132093800000348,17.13232760000028,17.146752500000275,17.146752500000275,17.146752500000275,17.43228100000033,,,,,,,,,,,,,,,,,,,,,,,,,,733003,001,2025-03-17_14h54.29.595,Estimulo_ICE,2024.2.4,59.97782020203209,2025-03-17 14h54.35.589250 -0300,
Estimulo_2,29,29,0,4,-4,4,-4,2.2,-2.2,-2.2,2.2,0,0,0,2,,,,,0,29,29,29,,,,,,,,,,,,,,,,,,,,,,,,,,,,,,,,,,,,,,,,,17.44669580000027,,,,17.432623700000022,17.44669580000027,17.44669580000027,17.44669580000027,17.73207400000001,17.732293600000048,17.746707900000274,17.746707900000274,17.746707900000274,18.03215590000036,,,,,,,,,,,,,,,,,,,,,,,,,,733003,001,2025-03-17_14h54.29.595,Estimulo_ICE,2024.2.4,59.97782020203209,2025-03-17 14h54.35.589250 -0300,
Estimulo_2,30,30,0,4.1,-4.1,4.1,-4.1,2.2,-2.2,-2.2,2.2,0,0,0,2,,,,,0,30,30,30,,,,,,,,,,,,,,,,,,,,,,,,,,,,,,,,,,,,,,,,,18.046697800000402,,,,18.032501200000297,18.046697800000402,18.046697800000402,18.046697800000402,18.332256700000016,18.332488000000012,18.3467440000004,18.3467440000004,18.3467440000004,18.632276700000148,,,,,,,,,,,,,,,,,,,,,,,,,,733003,001,2025-03-17_14h54.29.595,Estimulo_ICE,2024.2.4,59.97782020203209,2025-03-17 14h54.35.589250 -0300,
Estimulo_2,31,31,0,4.2,-4.2,4.2,-4.2,2.2,-2.2,-2.2,2.2,0,0,0,2,,,,,0,31,31,31,,,,,,,,,,,,,,,,,,,,,,,,,,,,,,,,,,,,,,,,,18.646706500000164,,,,18.63262050000003,18.646706500000164,18.646706500000164,18.646706500000164,18.9321130000003,18.932348200000433,18.946718600000167,18.946718600000167,18.946718600000167,19.232322900000327,,,,,,,,,,,,,,,,,,,,,,,,,,733003,001,2025-03-17_14h54.29.595,Estimulo_ICE,2024.2.4,59.97782020203209,2025-03-17 14h54.35.589250 -0300,
Estimulo_2,32,32,0,4.3,-4.3,4.3,-4.3,2.2,-2.2,-2.2,2.2,0,0,0,2,,,,,0,32,32,32,,,,,,,,,,,,,,,,,,,,,,,,,,,,,,,,,,,,,,,,,19.246592800000144,,,,19.23267470000019,19.246592800000144,19.246592800000144,19.246592800000144,19.53223640000033,19.532470600000124,19.546689300000253,19.546689300000253,19.546689300000253,19.839680300000055,,,,,,,,,,,,,,,,,,,,,,,,,,733003,001,2025-03-17_14h54.29.595,Estimulo_ICE,2024.2.4,59.97782020203209,2025-03-17 14h54.35.589250 -0300,
Estimulo_2,33,33,0,4.4,-4.4,4.4,-4.4,2.2,-2.2,-2.2,2.2,0,0,0,2,,,,,0,33,33,33,,,,,,,,,,,,,,,,,,,,,,,,,,,,,,,,,,,,,,,,,19.847828800000116,,,,19.840759000000162,19.847828800000116,19.847828800000116,19.847828800000116,20.133354900000086,20.133677100000114,20.14699210000026,20.14699210000026,20.14699210000026,20.435018000000127,,,,,,,,,,,,,,,,,,,,,,,,,,733003,001,2025-03-17_14h54.29.595,Estimulo_ICE,2024.2.4,59.97782020203209,2025-03-17 14h54.35.589250 -0300,
Estimulo_2,0,0,0,,,,,,,,,0,0,0,2,,,,,,,,,,,,,,,,,,,,,,,,,,,,,,,,,,,,,,,,,,,,,,,,,,,,,,,,,,,,,,,,,,20.574073800000406,20.579521200000272,20.932066000000304,,,,,,,,,,,,,,,,,,,,733003,001,2025-03-17_14h54.29.595,Estimulo_ICE,2024.2.4,59.97782020203209,2025-03-17 14h54.35.589250 -0300,
estimulo_9,0,0,0,1.1,-1.1,1.1,-1.1,2.2,-2.2,-2.2,2.2,0,1,1,8,,,,,0,0,0,0,,,,,,,,,,,,,,,,,,,,,,,,,,,,,,,,,,,,,,,,,20.962944700000207,,20.932173800000328,20.932508400000188,20.95460230000026,20.962944700000207,20.962944700000207,20.962944700000207,21.248961000000236,21.249200700000074,21.26338580000038,21.26338580000038,21.26338580000038,21.534902700000202,,,,,,,,,,,,,,,,,,,,,,,,,,733003,001,2025-03-17_14h54.29.595,Estimulo_ICE,2024.2.4,59.97782020203209,2025-03-17 14h54.35.589250 -0300,
estimulo_9,1,1,0,1.2,-1.2,1.2,-1.2,2.2,-2.2,-2.2,2.2,0,1,1,8,,,,,0,1,1,1,,,,,,,,,,,,,,,,,,,,,,,,,,,,,,,,,,,,,,,,,21.54746720000003,,,,21.535532800000055,21.54746720000003,21.54746720000003,21.54746720000003,21.832426100000248,21.832677900000363,21.846664000000146,21.846664000000146,21.846664000000146,22.132476900000256,22.146624500000144,22.146624500000144,22.146624500000144,,,,21.846664000000146,21.846664000000146,21.846664000000146,,,,,,,,,,,,,,,,,733003,001,2025-03-17_14h54.29.595,Estimulo_ICE,2024.2.4,59.97782020203209,2025-03-17 14h54.35.589250 -0300,
estimulo_9,2,2,0,1.3,-1.3,1.3,-1.3,2.2,-2.2,-2.2,2.2,0,1,1,8,,,,,0,2,2,2,,,,,,,,,,,,,,,,,,,,,,,,,,,,,,,,,,,,,,,,,22.146624500000144,,,,22.132845400000406,22.146624500000144,22.146624500000144,22.146624500000144,22.432721700000002,22.43297210000037,22.446690500000386,22.446690500000386,22.446690500000386,22.732616700000108,22.746753200000057,22.746753200000057,22.746753200000057,,,,22.446690500000386,22.446690500000386,22.446690500000386,,,,,,,,,,,,,,,,,733003,001,2025-03-17_14h54.29.595,Estimulo_ICE,2024.2.4,59.97782020203209,2025-03-17 14h54.35.589250 -0300,
estimulo_9,3,3,0,1.4,-1.4,1.4,-1.4,2.2,-2.2,-2.2,2.2,0,1,1,8,,,,,0,3,3,3,,,,,,,,,,,,,,,,,,,,,,,,,,,,,,,,,,,,,,,,,22.746753200000057,,,,22.732980800000405,22.746753200000057,22.746753200000057,22.746753200000057,23.032565500000146,23.032816000000366,23.046574899999996,23.046574899999996,23.046574899999996,23.332566500000212,23.34669750000012,23.34669750000012,23.34669750000012,,,,23.046574899999996,23.046574899999996,23.046574899999996,,,,,,,,,,,,,,,,,733003,001,2025-03-17_14h54.29.595,Estimulo_ICE,2024.2.4,59.97782020203209,2025-03-17 14h54.35.589250 -0300,
estimulo_9,4,4,0,1.5,-1.5,1.5,-1.5,2.2,-2.2,-2.2,2.2,0,1,1,8,,,,,0,4,4,4,,,,,,,,,,,,,,,,,,,,,,,,,,,,,,,,,,,,,,,,,23.34669750000012,,,,23.33292950000032,23.34669750000012,23.34669750000012,23.34669750000012,23.6325324000004,23.632783400000335,23.64675010000019,23.64675010000019,23.64675010000019,23.93242740000005,23.946774600000026,23.946774600000026,23.946774600000026,,,,23.64675010000019,23.64675010000019,23.64675010000019,,,,,,,,,,,,,,,,,733003,001,2025-03-17_14h54.29.595,Estimulo_ICE,2024.2.4,59.97782020203209,2025-03-17 14h54.35.589250 -0300,
estimulo_9,5,5,0,1.6,-1.6,1.6,-1.6,2.2,-2.2,-2.2,2.2,0,1,1,8,,,,,0,5,5,5,,,,,,,,,,,,,,,,,,,,,,,,,,,,,,,,,,,,,,,,,23.946774600000026,,,,23.932792600000084,23.946774600000026,23.946774600000026,23.946774600000026,24.23242479999999,24.23267960000021,24.246752800000195,24.246752800000195,24.246752800000195,24.532569100000273,24.546753600000102,24.546753600000102,24.546753600000102,,,,24.246752800000195,24.246752800000195,24.246752800000195,,,,,,,,,,,,,,,,,733003,001,2025-03-17_14h54.29.595,Estimulo_ICE,2024.2.4,59.97782020203209,2025-03-17 14h54.35.589250 -0300,
estimulo_9,6,6,0,1.7,-1.7,1.7,-1.7,2.2,-2.2,-2.2,2.2,0,1,1,8,,,,,0,6,6,6,,,,,,,,,,,,,,,,,,,,,,,,,,,,,,,,,,,,,,,,,24.546753600000102,,,,24.53293100000019,24.546753600000102,24.546753600000102,24.546753600000102,24.83261470000025,24.832866300000205,24.846704200000204,24.846704200000204,24.846704200000204,25.132570200000373,25.14668840000013,25.14668840000013,25.14668840000013,,,,24.846704200000204,24.846704200000204,24.846704200000204,,,,,,,,,,,,,,,,,733003,001,2025-03-17_14h54.29.595,Estimulo_ICE,2024.2.4,59.97782020203209,2025-03-17 14h54.35.589250 -0300,
estimulo_9,7,7,0,1.8,-1.8,1.8,-1.8,2.2,-2.2,-2.2,2.2,0,1,1,8,,,,,0,7,7,7,,,,,,,,,,,,,,,,,,,,,,,,,,,,,,,,,,,,,,,,,25.14668840000013,,,,25.132938200000353,25.14668840000013,25.14668840000013,25.14668840000013,25.434995600000093,25.435420400000112,25.447555300000204,25.447555300000204,25.447555300000204,25.742067099999986,,,,,,,,,,,,,,,,,,,,,,,,,,733003,001,2025-03-17_14h54.29.595,Estimulo_ICE,2024.2.4,59.97782020203209,2025-03-17 14h54.35.589250 -0300,
estimulo_9,8,8,0,1.9,-1.9,1.9,-1.9,2.2,-2.2,-2.2,2.2,0,1,1,8,,,,,0,8,8,8,,,,,,,,,,,,,,,,,,,,,,,,,,,,,,,,,,,,,,,,,25.7639578000003,,,,25.74351850000039,25.7639578000003,25.7639578000003,25.7639578000003,26.03638590000037,26.03680680000025,26.047452500000418,26.047452500000418,26.047452500000418,26.332730800000263,,,,,,,,,,,,,,,,,,,,,,,,,,733003,001,2025-03-17_14h54.29.595,Estimulo_ICE,2024.2.4,59.97782020203209,2025-03-17 14h54.35.589250 -0300,
estimulo_9,9,9,0,2,-2,2,-2,2.2,-2.2,-2.2,2.2,0,1,1,8,,,,,0,9,9,9,,,,,,,,,,,,,,,,,,,,,,,,,,,,,,,,,,,,,,,,,26.346766800000296,,,,26.33313420000013,26.346766800000296,26.346766800000296,26.346766800000296,26.632589499999995,26.632840100000067,26.646641100000124,26.646641100000124,26.646641100000124,26.93259550000039,26.946602299999995,26.946602299999995,26.946602299999995,,,,26.646641100000124,26.646641100000124,26.646641100000124,,,,,,,,,,,,,,,,,733003,001,2025-03-17_14h54.29.595,Estimulo_ICE,2024.2.4,59.97782020203209,2025-03-17 14h54.35.589250 -0300,
estimulo_9,10,10,0,2.1,-2.1,2.1,-2.1,2.2,-2.2,-2.2,2.2,0,1,1,8,,,,,0,10,10,10,,,,,,,,,,,,,,,,,,,,,,,,,,,,,,,,,,,,,,,,,26.946602299999995,,,,26.93295900000021,26.946602299999995,26.946602299999995,26.946602299999995,27.232422900000074,27.23266390000026,27.246798600000147,27.246798600000147,27.246798600000147,27.53237870000021,27.546606800000063,27.546606800000063,27.546606800000063,,,,27.246798600000147,27.246798600000147,27.246798600000147,,,,,,,,,,,,,,,,,733003,001,2025-03-17_14h54.29.595,Estimulo_ICE,2024.2.4,59.97782020203209,2025-03-17 14h54.35.589250 -0300,
estimulo_9,11,11,0,2.2,-2.2,2.2,-2.2,2.2,-2.2,-2.2,2.2,0,1,1,8,,,,,0,11,11,11,,,,,,,,,,,,,,,,,,,,,,,,,,,,,,,,,,,,,,,,,27.546606800000063,,,,27.532742100000178,27.546606800000063,27.546606800000063,27.546606800000063,27.832378600000084,27.832630100000188,27.84663330000012,27.84663330000012,27.84663330000012,28.13262900000018,28.146608500000184,28.146608500000184,28.146608500000184,,,,27.84663330000012,27.84663330000012,27.84663330000012,,,,,,,,,,,,,,,,,733003,001,2025-03-17_14h54.29.595,Estimulo_ICE,2024.2.4,59.97782020203209,2025-03-17 14h54.35.589250 -0300,
estimulo_9,12,12,0,2.3,-2.3,2.3,-2.3,2.2,-2.2,-2.2,2.2,0,1,1,8,,,,,0,12,12,12,,,,,,,,,,,,,,,,,,,,,,,,,,,,,,,,,,,,,,,,,28.146608500000184,,,,28.132980000000316,28.146608500000184,28.146608500000184,28.146608500000184,28.432431700000052,28.43268210000042,28.446673700000247,28.446673700000247,28.446673700000247,28.732547000000068,28.7466043000004,28.7466043000004,28.7466043000004,,,,28.446673700000247,28.446673700000247,28.446673700000247,,,,,,,,,,,,,,,,,733003,001,2025-03-17_14h54.29.595,Estimulo_ICE,2024.2.4,59.97782020203209,2025-03-17 14h54.35.589250 -0300,
estimulo_9,13,13,0,2.4,-2.4,2.4,-2.4,2.2,-2.2,-2.2,2.2,0,1,1,8,,,,,0,13,13,13,,,,,,,,,,,,,,,,,,,,,,,,,,,,,,,,,,,,,,,,,28.7466043000004,,,,28.732910500000344,28.7466043000004,28.7466043000004,28.7466043000004,29.03261640000028,29.032866600000034,29.04660469999999,29.04660469999999,29.04660469999999,29.332506300000205,29.346442700000352,29.346442700000352,29.346442700000352,,,,29.04660469999999,29.04660469999999,29.04660469999999,,,,,,,,,,,,,,,,,733003,001,2025-03-17_14h54.29.595,Estimulo_ICE,2024.2.4,59.97782020203209,2025-03-17 14h54.35.589250 -0300,
estimulo_9,14,14,0,2.5,-2.5,2.5,-2.5,2.2,-2.2,-2.2,2.2,0,1,1,8,,,,,0,14,14,14,,,,,,,,,,,,,,,,,,,,,,,,,,,,,,,,,,,,,,,,,29.346442700000352,,,,29.33287130000008,29.346442700000352,29.346442700000352,29.346442700000352,29.63251610000043,29.632766300000185,29.646669600000223,29.646669600000223,29.646669600000223,29.932450900000276,29.94661240000005,29.94661240000005,29.94661240000005,,,,29.646669600000223,29.646669600000223,29.646669600000223,,,,,,,,,,,,,,,,,733003,001,2025-03-17_14h54.29.595,Estimulo_ICE,2024.2.4,59.97782020203209,2025-03-17 14h54.35.589250 -0300,
estimulo_9,15,15,0,2.6,-2.6,2.6,-2.6,2.2,-2.2,-2.2,2.2,0,1,1,8,,,,,0,15,15,15,,,,,,,,,,,,,,,,,,,,,,,,,,,,,,,,,,,,,,,,,29.94661240000005,,,,29.93281300000035,29.94661240000005,29.94661240000005,29.94661240000005,30.23249580000038,30.232746099999986,30.24659040000006,30.24659040000006,30.24659040000006,30.532541200000196,30.546605,30.546605,30.546605,,,,30.24659040000006,30.24659040000006,30.24659040000006,,,,,,,,,,,,,,,,,733003,001,2025-03-17_14h54.29.595,Estimulo_ICE,2024.2.4,59.97782020203209,2025-03-17 14h54.35.589250 -0300,
estimulo_9,16,16,0,2.7,-2.7,2.7,-2.7,2.2,-2.2,-2.2,2.2,0,1,1,8,,,,,0,16,16,16,,,,,,,,,,,,,,,,,,,,,,,,,,,,,,,,,,,,,,,,,30.546605,,,,30.532893700000386,30.546605,30.546605,30.546605,30.832485500000075,30.83273670000017,30.846520300000066,30.846520300000066,30.846520300000066,31.13249040000028,31.146603600000162,31.146603600000162,31.146603600000162,,,,30.846520300000066,30.846520300000066,30.846520300000066,,,,,,,,,,,,,,,,,733003,001,2025-03-17_14h54.29.595,Estimulo_ICE,2024.2.4,59.97782020203209,2025-03-17 14h54.35.589250 -0300,
estimulo_9,17,17,0,2.8,-2.8,2.8,-2.8,2.2,-2.2,-2.2,2.2,0,1,1,8,,,,,0,17,17,17,,,,,,,,,,,,,,,,,,,,,,,,,,,,,,,,,,,,,,,,,31.146603600000162,,,,31.132853700000396,31.146603600000162,31.146603600000162,31.146603600000162,31.432399799999985,31.432648900000004,31.44656950000035,31.44656950000035,31.44656950000035,31.732549800000015,31.74659200000042,31.74659200000042,31.74659200000042,,,,31.44656950000035,31.44656950000035,31.44656950000035,,,,,,,,,,,,,,,,,733003,001,2025-03-17_14h54.29.595,Estimulo_ICE,2024.2.4,59.97782020203209,2025-03-17 14h54.35.589250 -0300,
estimulo_9,18,18,0,2.9,-2.9,2.9,-2.9,2.2,-2.2,-2.2,2.2,0,1,1,8,,,,,0,18,18,18,,,,,,,,,,,,,,,,,,,,,,,,,,,,,,,,,,,,,,,,,31.74659200000042,,,,31.732897200000025,31.74659200000042,31.74659200000042,31.74659200000042,32.03250090000029,32.03275160000021,32.04671140000028,32.04671140000028,32.04671140000028,32.33251390000032,32.3464055000004,32.3464055000004,32.3464055000004,,,,32.04671140000028,32.04671140000028,32.04671140000028,,,,,,,,,,,,,,,,,733003,001,2025-03-17_14h54.29.595,Estimulo_ICE,2024.2.4,59.97782020203209,2025-03-17 14h54.35.589250 -0300,
estimulo_9,19,19,0,3,-3,3,-3,2.2,-2.2,-2.2,2.2,0,1,1,8,,,,,0,19,19,19,,,,,,,,,,,,,,,,,,,,,,,,,,,,,,,,,,,,,,,,,32.3464055000004,,,,32.332878600000186,32.3464055000004,32.3464055000004,32.3464055000004,32.632626300000084,32.63287430000037,32.646523400000206,32.646523400000206,32.646523400000206,32.93259180000041,32.946563300000435,32.946563300000435,32.946563300000435,,,,32.646523400000206,32.646523400000206,32.646523400000206,,,,,,,,,,,,,,,,,733003,001,2025-03-17_14h54.29.595,Estimulo_ICE,2024.2.4,59.97782020203209,2025-03-17 14h54.35.589250 -0300,
estimulo_9,20,20,0,3.1,-3.1,3.1,-3.1,2.2,-2.2,-2.2,2.2,0,1,1,8,,,,,0,20,20,20,,,,,,,,,,,,,,,,,,,,,,,,,,,,,,,,,,,,,,,,,32.946563300000435,,,,32.932957700000316,32.946563300000435,32.946563300000435,32.946563300000435,33.23259180000014,33.232832900000176,33.246679900000345,33.246679900000345,33.246679900000345,33.53248970000004,33.54657450000013,33.54657450000013,33.54657450000013,,,,33.246679900000345,33.246679900000345,33.246679900000345,,,,,,,,,,,,,,,,,733003,001,2025-03-17_14h54.29.595,Estimulo_ICE,2024.2.4,59.97782020203209,2025-03-17 14h54.35.589250 -0300,
estimulo_9,21,21,0,3.2,-3.2,3.2,-3.2,2.2,-2.2,-2.2,2.2,0,1,1,8,,,,,0,21,21,21,,,,,,,,,,,,,,,,,,,,,,,,,,,,,,,,,,,,,,,,,33.54657450000013,,,,33.5328513000004,33.54657450000013,33.54657450000013,33.54657450000013,33.8324133000001,33.832638300000326,33.84654920000003,33.84654920000003,33.84654920000003,34.132552600000054,34.146555400000125,34.146555400000125,34.146555400000125,,,,33.84654920000003,33.84654920000003,33.84654920000003,,,,,,,,,,,,,,,,,733003,001,2025-03-17_14h54.29.595,Estimulo_ICE,2024.2.4,59.97782020203209,2025-03-17 14h54.35.589250 -0300,
estimulo_9,22,22,0,3.3,-3.3,3.3,-3.3,2.2,-2.2,-2.2,2.2,0,1,1,8,,,,,0,22,22,22,,,,,,,,,,,,,,,,,,,,,,,,,,,,,,,,,,,,,,,,,34.146555400000125,,,,34.1329181000001,34.146555400000125,34.146555400000125,34.146555400000125,34.437853500000074,34.43847910000022,34.44859720000022,34.44859720000022,34.44859720000022,34.734623900000315,,,,,,,,,,,,,,,,,,,,,,,,,,733003,001,2025-03-17_14h54.29.595,Estimulo_ICE,2024.2.4,59.97782020203209,2025-03-17 14h54.35.589250 -0300,
estimulo_9,23,23,0,3.4,-3.4,3.4,-3.4,2.2,-2.2,-2.2,2.2,0,1,1,8,,,,,0,23,23,23,,,,,,,,,,,,,,,,,,,,,,,,,,,,,,,,,,,,,,,,,34.747411400000146,,,,34.73521660000006,34.747411400000146,34.747411400000146,34.747411400000146,35.0328327000002,35.03312150000011,35.04669430000013,35.04669430000013,35.04669430000013,35.332939500000066,35.3464740000004,35.3464740000004,35.3464740000004,,,,35.04669430000013,35.04669430000013,35.04669430000013,,,,,,,,,,,,,,,,,733003,001,2025-03-17_14h54.29.595,Estimulo_ICE,2024.2.4,59.97782020203209,2025-03-17 14h54.35.589250 -0300,
estimulo_9,24,24,0,3.5,-3.5,3.5,-3.5,2.2,-2.2,-2.2,2.2,0,1,1,8,,,,,0,24,24,24,,,,,,,,,,,,,,,,,,,,,,,,,,,,,,,,,,,,,,,,,35.3464740000004,,,,35.33335390000002,35.3464740000004,35.3464740000004,35.3464740000004,35.63259750000043,35.63286630000039,35.64676610000015,35.64676610000015,35.64676610000015,35.93281700000034,35.94672460000038,35.94672460000038,35.94672460000038,,,,,,,,,,,,,,,,,,,,,,,733003,001,2025-03-17_14h54.29.595,Estimulo_ICE,2024.2.4,59.97782020203209,2025-03-17 14h54.35.589250 -0300,
estimulo_9,25,25,0,3.6,-3.6,3.6,-3.6,2.2,-2.2,-2.2,2.2,0,1,1,8,,,,,0,25,25,25,,,,,,,,,,,,,,,,,,,,,,,,,,,,,,,,,,,,,,,,,35.94672460000038,,,,35.933230800000274,35.94672460000038,35.94672460000038,35.94672460000038,36.232509200000095,36.23276140000007,36.24654170000031,36.24654170000031,36.24654170000031,36.53243620000012,36.54637070000035,36.54637070000035,36.54637070000035,,,,36.24654170000031,36.24654170000031,36.24654170000031,,,,,,,,,,,,,,,,,733003,001,2025-03-17_14h54.29.595,Estimulo_ICE,2024.2.4,59.97782020203209,2025-03-17 14h54.35.589250 -0300,
estimulo_9,26,26,0,3.7,-3.7,3.7,-3.7,2.2,-2.2,-2.2,2.2,0,1,1,8,,,,,0,26,26,26,,,,,,,,,,,,,,,,,,,,,,,,,,,,,,,,,,,,,,,,,36.54637070000035,,,,36.532798800000364,36.54637070000035,36.54637070000035,36.54637070000035,36.83243900000025,36.83269020000034,36.84663470000032,36.84663470000032,36.84663470000032,37.132558800000425,37.14650419999998,37.14650419999998,37.14650419999998,,,,36.84663470000032,36.84663470000032,36.84663470000032,,,,,,,,,,,,,,,,,733003,001,2025-03-17_14h54.29.595,Estimulo_ICE,2024.2.4,59.97782020203209,2025-03-17 14h54.35.589250 -0300,
estimulo_9,27,27,0,3.8,-3.8,3.8,-3.8,2.2,-2.2,-2.2,2.2,0,1,1,8,,,,,0,27,27,27,,,,,,,,,,,,,,,,,,,,,,,,,,,,,,,,,,,,,,,,,37.14650419999998,,,,37.132908300000054,37.14650419999998,37.14650419999998,37.14650419999998,37.43255620000036,37.4328058000001,37.44656410000016,37.44656410000016,37.44656410000016,37.73268020000023,37.747288800000206,37.747288800000206,37.747288800000206,,,,37.44656410000016,37.44656410000016,37.44656410000016,,,,,,,,,,,,,,,,,733003,001,2025-03-17_14h54.29.595,Estimulo_ICE,2024.2.4,59.97782020203209,2025-03-17 14h54.35.589250 -0300,
estimulo_9,28,28,0,3.9,-3.9,3.9,-3.9,2.2,-2.2,-2.2,2.2,0,1,1,8,,,,,0,28,28,28,,,,,,,,,,,,,,,,,,,,,,,,,,,,,,,,,,,,,,,,,37.747288800000206,,,,37.73305040000014,37.747288800000206,37.747288800000206,37.747288800000206,38.03253490000043,38.032783400000426,38.046726300000046,38.046726300000046,38.046726300000046,38.3324904000001,38.346517600000425,38.346517600000425,38.346517600000425,,,,38.046726300000046,38.046726300000046,38.046726300000046,,,,,,,,,,,,,,,,,733003,001,2025-03-17_14h54.29.595,Estimulo_ICE,2024.2.4,59.97782020203209,2025-03-17 14h54.35.589250 -0300,
estimulo_9,29,29,0,4,-4,4,-4,2.2,-2.2,-2.2,2.2,0,1,1,8,,,,,0,29,29,29,,,,,,,,,,,,,,,,,,,,,,,,,,,,,,,,,,,,,,,,,38.346517600000425,,,,38.332853400000204,38.346517600000425,38.346517600000425,38.346517600000425,38.632318000000396,38.63255509999999,38.64656350000041,38.64656350000041,38.64656350000041,38.93251390000023,38.946541400000115,38.946541400000115,38.946541400000115,,,,38.64656350000041,38.64656350000041,38.64656350000041,,,,,,,,,,,,,,,,,733003,001,2025-03-17_14h54.29.595,Estimulo_ICE,2024.2.4,59.97782020203209,2025-03-17 14h54.35.589250 -0300,
estimulo_9,30,30,0,4.1,-4.1,4.1,-4.1,2.2,-2.2,-2.2,2.2,0,1,1,8,,,,,0,30,30,30,,,,,,,,,,,,,,,,,,,,,,,,,,,,,,,,,,,,,,,,,38.946541400000115,,,,38.93286110000008,38.946541400000115,38.946541400000115,38.946541400000115,39.23231080000005,39.23256250000031,39.24663750000036,39.24663750000036,39.24663750000036,39.532478900000115,39.54639450000013,39.54639450000013,39.54639450000013,,,,39.24663750000036,39.24663750000036,39.24663750000036,,,,,,,,,,,,,,,,,733003,001,2025-03-17_14h54.29.595,Estimulo_ICE,2024.2.4,59.97782020203209,2025-03-17 14h54.35.589250 -0300,
estimulo_9,31,31,0,4.2,-4.2,4.2,-4.2,2.2,-2.2,-2.2,2.2,0,1,1,8,,,,,0,31,31,31,,,,,,,,,,,,,,,,,,,,,,,,,,,,,,,,,,,,,,,,,39.54639450000013,,,,39.532843100000264,39.54639450000013,39.54639450000013,39.54639450000013,39.832430000000386,39.83268080000016,39.84651359999998,39.84651359999998,39.84651359999998,40.132309700000405,40.14651100000037,40.14651100000037,40.14651100000037,,,,39.84651359999998,39.84651359999998,39.84651359999998,,,,,,,,,,,,,,,,,733003,001,2025-03-17_14h54.29.595,Estimulo_ICE,2024.2.4,59.97782020203209,2025-03-17 14h54.35.589250 -0300,
estimulo_9,32,32,0,4.3,-4.3,4.3,-4.3,2.2,-2.2,-2.2,2.2,0,1,1,8,,,,,0,32,32,32,,,,,,,,,,,,,,,,,,,,,,,,,,,,,,,,,,,,,,,,,40.14651100000037,,,,40.13267190000033,40.14651100000037,40.14651100000037,40.14651100000037,40.43247130000009,40.43272280000019,40.44657150000012,40.44657150000012,40.44657150000012,40.73247980000042,40.74652180000021,40.74652180000021,40.74652180000021,,,,40.44657150000012,40.44657150000012,40.44657150000012,,,,,,,,,,,,,,,,,733003,001,2025-03-17_14h54.29.595,Estimulo_ICE,2024.2.4,59.97782020203209,2025-03-17 14h54.35.589250 -0300,
estimulo_9,33,33,0,4.4,-4.4,4.4,-4.4,2.2,-2.2,-2.2,2.2,0,1,1,8,,,,,0,33,33,33,,,,,,,,,,,,,,,,,,,,,,,,,,,,,,,,,,,,,,,,,40.74652180000021,,,,40.732842000000346,40.74652180000021,40.74652180000021,40.74652180000021,41.03247020000026,41.03271460000042,41.0464877000004,41.0464877000004,41.0464877000004,41.33224900000005,41.46270390000018,41.46270390000018,41.46270390000018,,,,41.0464877000004,41.0464877000004,41.0464877000004,,,,,,,,,,,,,,,,,733003,001,2025-03-17_14h54.29.595,Estimulo_ICE,2024.2.4,59.97782020203209,2025-03-17 14h54.35.589250 -0300,
estimulo_9,1,1,0,,,,,,,,,0,1,1,8,,,,,,,,,,,,,,,,,,,,,,,,,,,,,,,,,,,,,,,,,,,,,,,,,,,,,,,,,,,,,,,,,,41.45287350000035,41.46270390000018,41.84880920000023,,,,,,,,,,,,,,,,,,,,733003,001,2025-03-17_14h54.29.595,Estimulo_ICE,2024.2.4,59.97782020203209,2025-03-17 14h54.35.589250 -0300,
Estimulo_6,0,0,0,1.1,-1.1,1.1,-1.1,2.2,-2.2,-2.2,2.2,0,2,2,5,,,,,,,,,,,,,,,,,,,,,0,0,0,0,,,,,,,,,,,,,,,,,,,,,,,,,41.929179300000214,,41.848921000000246,41.84926990000031,,,,,,,,,,,,,,,,,,,,41.919384600000285,41.929179300000214,41.929179300000214,41.929179300000214,42.153689100000065,42.15422260000014,42.16492970000036,42.16492970000036,42.16492970000036,42.45360100000016,,,,,,,733003,001,2025-03-17_14h54.29.595,Estimulo_ICE,2024.2.4,59.97782020203209,2025-03-17 14h54.35.589250 -0300,
Estimulo_6,1,1,0,1.2,-1.2,1.2,-1.2,2.2,-2.2,-2.2,2.2,0,2,2,5,,,,,,,,,,,,,,,,,,,,,0,1,1,1,,,,,,,,,,,,,,,,,,,,,,,,,42.46485550000034,,,,,,,,,,,,,,,,,,,,,,,42.45446510000011,42.46485550000034,42.46485550000034,42.46485550000034,42.7585081000002,42.75911700000006,42.781293600000026,42.781293600000026,42.781293600000026,43.04919600000039,,,,,,,733003,001,2025-03-17_14h54.29.595,Estimulo_ICE,2024.2.4,59.97782020203209,2025-03-17 14h54.35.589250 -0300,
Estimulo_6,2,2,0,1.3,-1.3,1.3,-1.3,2.2,-2.2,-2.2,2.2,0,2,2,5,,,,,,,,,,,,,,,,,,,,,0,2,2,2,,,,,,,,,,,,,,,,,,,,,,,,,43.06318420000025,,,,,,,,,,,,,,,,,,,,,,,43.049572300000364,43.06318420000025,43.06318420000025,43.06318420000025,43.34897260000025,43.34923079999999,43.36322000000018,43.36322000000018,43.36322000000018,43.64899600000035,43.36322000000018,43.36322000000018,43.36322000000018,43.66318910000018,43.66318910000018,43.66318910000018,733003,001,2025-03-17_14h54.29.595,Estimulo_ICE,2024.2.4,59.97782020203209,2025-03-17 14h54.35.589250 -0300,
Estimulo_6,3,3,0,1.4,-1.4,1.4,-1.4,2.2,-2.2,-2.2,2.2,0,2,2,5,,,,,,,,,,,,,,,,,,,,,0,3,3,3,,,,,,,,,,,,,,,,,,,,,,,,,43.66318910000018,,,,,,,,,,,,,,,,,,,,,,,43.64936370000032,43.66318910000018,43.66318910000018,43.66318910000018,43.94910820000041,43.94936170000028,43.96303560000024,43.96303560000024,43.96303560000024,44.24922830000014,43.96303560000024,43.96303560000024,43.96303560000024,44.263162400000056,44.263162400000056,44.263162400000056,733003,001,2025-03-17_14h54.29.595,Estimulo_ICE,2024.2.4,59.97782020203209,2025-03-17 14h54.35.589250 -0300,
Estimulo_6,4,4,0,1.5,-1.5,1.5,-1.5,2.2,-2.2,-2.2,2.2,0,2,2,5,,,,,,,,,,,,,,,,,,,,,0,4,4,4,,,,,,,,,,,,,,,,,,,,,,,,,44.263162400000056,,,,,,,,,,,,,,,,,,,,,,,44.249598400000195,44.263162400000056,44.263162400000056,44.263162400000056,44.54892520000021,44.54916920000005,44.56320510000023,44.56320510000023,44.56320510000023,44.84913420000021,44.56320510000023,44.56320510000023,44.56320510000023,44.8631747000004,44.8631747000004,44.8631747000004,733003,001,2025-03-17_14h54.29.595,Estimulo_ICE,2024.2.4,59.97782020203209,2025-03-17 14h54.35.589250 -0300,
Estimulo_6,5,5,0,1.6,-1.6,1.6,-1.6,2.2,-2.2,-2.2,2.2,0,2,2,5,,,,,,,,,,,,,,,,,,,,,0,5,5,5,,,,,,,,,,,,,,,,,,,,,,,,,44.8631747000004,,,,,,,,,,,,,,,,,,,,,,,44.84948760000043,44.8631747000004,44.8631747000004,44.8631747000004,45.149101299999984,45.14935050000031,45.16303710000011,45.16303710000011,45.16303710000011,45.44906609999998,45.16303710000011,45.16303710000011,45.16303710000011,45.463185500000236,45.463185500000236,45.463185500000236,733003,001,2025-03-17_14h54.29.595,Estimulo_ICE,2024.2.4,59.97782020203209,2025-03-17 14h54.35.589250 -0300,
Estimulo_6,6,6,0,1.7,-1.7,1.7,-1.7,2.2,-2.2,-2.2,2.2,0,2,2,5,,,,,,,,,,,,,,,,,,,,,0,6,6,6,,,,,,,,,,,,,,,,,,,,,,,,,45.463185500000236,,,,,,,,,,,,,,,,,,,,,,,45.449420300000384,45.463185500000236,45.463185500000236,45.463185500000236,45.74898760000042,45.74924080000028,45.76323769999999,45.76323769999999,45.76323769999999,46.04925560000038,45.76323769999999,45.76323769999999,45.76323769999999,46.0632356000001,46.0632356000001,46.0632356000001,733003,001,2025-03-17_14h54.29.595,Estimulo_ICE,2024.2.4,59.97782020203209,2025-03-17 14h54.35.589250 -0300,
Estimulo_6,7,7,0,1.8,-1.8,1.8,-1.8,2.2,-2.2,-2.2,2.2,0,2,2,5,,,,,,,,,,,,,,,,,,,,,0,7,7,7,,,,,,,,,,,,,,,,,,,,,,,,,46.0632356000001,,,,,,,,,,,,,,,,,,,,,,,46.04960800000026,46.0632356000001,46.0632356000001,46.0632356000001,46.34907290000001,46.3493239000004,46.36306680000007,46.36306680000007,46.36306680000007,46.649025600000186,46.36306680000007,46.36306680000007,46.36306680000007,46.66322510000009,46.66322510000009,46.66322510000009,733003,001,2025-03-17_14h54.29.595,Estimulo_ICE,2024.2.4,59.97782020203209,2025-03-17 14h54.35.589250 -0300,
Estimulo_6,8,8,0,1.9,-1.9,1.9,-1.9,2.2,-2.2,-2.2,2.2,0,2,2,5,,,,,,,,,,,,,,,,,,,,,0,8,8,8,,,,,,,,,,,,,,,,,,,,,,,,,46.66322510000009,,,,,,,,,,,,,,,,,,,,,,,46.649397300000146,46.66322510000009,46.66322510000009,46.66322510000009,46.949138700000276,46.94938060000004,46.96297050000021,46.96297050000021,46.96297050000021,47.249111600000106,46.96297050000021,46.96297050000021,46.96297050000021,47.26316050000014,47.26316050000014,47.26316050000014,733003,001,2025-03-17_14h54.29.595,Estimulo_ICE,2024.2.4,59.97782020203209,2025-03-17 14h54.35.589250 -0300,
Estimulo_6,9,9,0,2,-2,2,-2,2.2,-2.2,-2.2,2.2,0,2,2,5,,,,,,,,,,,,,,,,,,,,,0,9,9,9,,,,,,,,,,,,,,,,,,,,,,,,,47.26316050000014,,,,,,,,,,,,,,,,,,,,,,,47.24948370000038,47.26316050000014,47.26316050000014,47.26316050000014,47.549130700000205,47.54938200000015,47.56313100000034,47.56313100000034,47.56313100000034,47.84907780000003,47.56313100000034,47.56313100000034,47.56313100000034,47.86313210000026,47.86313210000026,47.86313210000026,733003,001,2025-03-17_14h54.29.595,Estimulo_ICE,2024.2.4,59.97782020203209,2025-03-17 14h54.35.589250 -0300,
Estimulo_6,10,10,0,2.1,-2.1,2.1,-2.1,2.2,-2.2,-2.2,2.2,0,2,2,5,,,,,,,,,,,,,,,,,,,,,0,10,10,10,,,,,,,,,,,,,,,,,,,,,,,,,47.86313210000026,,,,,,,,,,,,,,,,,,,,,,,47.84945779999998,47.86313210000026,47.86313210000026,47.86313210000026,48.149159000000054,48.14941480000016,48.16312930000004,48.16312930000004,48.16312930000004,48.44910710000022,48.16312930000004,48.16312930000004,48.16312930000004,48.46297300000015,48.46297300000015,48.46297300000015,733003,001,2025-03-17_14h54.29.595,Estimulo_ICE,2024.2.4,59.97782020203209,2025-03-17 14h54.35.589250 -0300,
Estimulo_6,11,11,0,2.2,-2.2,2.2,-2.2,2.2,-2.2,-2.2,2.2,0,2,2,5,,,,,,,,,,,,,,,,,,,,,0,11,11,11,,,,,,,,,,,,,,,,,,,,,,,,,48.46297300000015,,,,,,,,,,,,,,,,,,,,,,,48.44946140000002,48.46297300000015,48.46297300000015,48.46297300000015,48.74907110000004,48.749323800000184,48.76313570000002,48.76313570000002,48.76313570000002,49.04921840000043,48.76313570000002,48.76313570000002,48.76313570000002,49.06311190000042,49.06311190000042,49.06311190000042,733003,001,2025-03-17_14h54.29.595,Estimulo_ICE,2024.2.4,59.97782020203209,2025-03-17 14h54.35.589250 -0300,
Estimulo_6,12,12,0,2.3,-2.3,2.3,-2.3,2.2,-2.2,-2.2,2.2,0,2,2,5,,,,,,,,,,,,,,,,,,,,,0,12,12,12,,,,,,,,,,,,,,,,,,,,,,,,,49.06311190000042,,,,,,,,,,,,,,,,,,,,,,,49.04959150000013,49.06311190000042,49.06311190000042,49.06311190000042,49.3489612000003,49.349214100000154,49.363200100000086,49.363200100000086,49.363200100000086,49.64913190000016,49.363200100000086,49.363200100000086,49.363200100000086,49.66309050000018,49.66309050000018,49.66309050000018,733003,001,2025-03-17_14h54.29.595,Estimulo_ICE,2024.2.4,59.97782020203209,2025-03-17 14h54.35.589250 -0300,
Estimulo_6,13,13,0,2.4,-2.4,2.4,-2.4,2.2,-2.2,-2.2,2.2,0,2,2,5,,,,,,,,,,,,,,,,,,,,,0,13,13,13,,,,,,,,,,,,,,,,,,,,,,,,,49.66309050000018,,,,,,,,,,,,,,,,,,,,,,,49.649500100000296,49.66309050000018,49.66309050000018,49.66309050000018,49.94906110000011,49.94931160000033,49.9629587000004,49.9629587000004,49.9629587000004,50.24903910000012,49.9629587000004,49.9629587000004,49.9629587000004,50.26321320000034,50.26321320000034,50.26321320000034,733003,001,2025-03-17_14h54.29.595,Estimulo_ICE,2024.2.4,59.97782020203209,2025-03-17 14h54.35.589250 -0300,
Estimulo_6,14,14,0,2.5,-2.5,2.5,-2.5,2.2,-2.2,-2.2,2.2,0,2,2,5,,,,,,,,,,,,,,,,,,,,,0,14,14,14,,,,,,,,,,,,,,,,,,,,,,,,,50.26321320000034,,,,,,,,,,,,,,,,,,,,,,,50.24939370000038,50.26321320000034,50.26321320000034,50.26321320000034,50.548926100000244,50.549180400000296,50.56313760000012,50.56313760000012,50.56313760000012,50.84889880000037,50.56313760000012,50.56313760000012,50.56313760000012,50.86310300000014,50.86310300000014,50.86310300000014,733003,001,2025-03-17_14h54.29.595,Estimulo_ICE,2024.2.4,59.97782020203209,2025-03-17 14h54.35.589250 -0300,
Estimulo_6,15,15,0,2.6,-2.6,2.6,-2.6,2.2,-2.2,-2.2,2.2,0,2,2,5,,,,,,,,,,,,,,,,,,,,,0,15,15,15,,,,,,,,,,,,,,,,,,,,,,,,,50.86310300000014,,,,,,,,,,,,,,,,,,,,,,,50.84926740000037,50.86310300000014,50.86310300000014,50.86310300000014,51.14908950000017,51.14934080000012,51.16314790000024,51.16314790000024,51.16314790000024,51.44912750000003,51.16314790000024,51.16314790000024,51.16314790000024,51.46307210000032,51.46307210000032,51.46307210000032,733003,001,2025-03-17_14h54.29.595,Estimulo_ICE,2024.2.4,59.97782020203209,2025-03-17 14h54.35.589250 -0300,
Estimulo_6,16,16,0,2.7,-2.7,2.7,-2.7,2.2,-2.2,-2.2,2.2,0,2,2,5,,,,,,,,,,,,,,,,,,,,,0,16,16,16,,,,,,,,,,,,,,,,,,,,,,,,,51.46307210000032,,,,,,,,,,,,,,,,,,,,,,,51.44949480000014,51.46307210000032,51.46307210000032,51.46307210000032,51.74892,51.749173200000314,51.763166300000194,51.763166300000194,51.763166300000194,52.05419170000005,51.763166300000194,51.763166300000194,51.763166300000194,,,,733003,001,2025-03-17_14h54.29.595,Estimulo_ICE,2024.2.4,59.97782020203209,2025-03-17 14h54.35.589250 -0300,
Estimulo_6,17,17,0,2.8,-2.8,2.8,-2.8,2.2,-2.2,-2.2,2.2,0,2,2,5,,,,,,,,,,,,,,,,,,,,,0,17,17,17,,,,,,,,,,,,,,,,,,,,,,,,,52.06389470000022,,,,,,,,,,,,,,,,,,,,,,,52.05513400000018,52.06389470000022,52.06389470000022,52.06389470000022,52.35063740000032,52.351025500000105,52.36394020000034,52.36394020000034,52.36394020000034,52.65098100000023,,,,,,,733003,001,2025-03-17_14h54.29.595,Estimulo_ICE,2024.2.4,59.97782020203209,2025-03-17 14h54.35.589250 -0300,
Estimulo_6,18,18,0,2.9,-2.9,2.9,-2.9,2.2,-2.2,-2.2,2.2,0,2,2,5,,,,,,,,,,,,,,,,,,,,,0,18,18,18,,,,,,,,,,,,,,,,,,,,,,,,,52.66344340000023,,,,,,,,,,,,,,,,,,,,,,,52.651563800000076,52.66344340000023,52.66344340000023,52.66344340000023,52.948981600000025,52.94923540000036,52.96286750000036,52.96286750000036,52.96286750000036,53.24899980000009,52.96286750000036,52.96286750000036,52.96286750000036,53.263113700000304,53.263113700000304,53.263113700000304,733003,001,2025-03-17_14h54.29.595,Estimulo_ICE,2024.2.4,59.97782020203209,2025-03-17 14h54.35.589250 -0300,
Estimulo_6,19,19,0,3,-3,3,-3,2.2,-2.2,-2.2,2.2,0,2,2,5,,,,,,,,,,,,,,,,,,,,,0,19,19,19,,,,,,,,,,,,,,,,,,,,,,,,,53.263113700000304,,,,,,,,,,,,,,,,,,,,,,,53.2493528,53.263113700000304,53.263113700000304,53.263113700000304,53.549061600000186,53.54931640000041,53.56319670000039,53.56319670000039,53.56319670000039,53.849161300000105,53.56319670000039,53.56319670000039,53.56319670000039,53.86308860000008,53.86308860000008,53.86308860000008,733003,001,2025-03-17_14h54.29.595,Estimulo_ICE,2024.2.4,59.97782020203209,2025-03-17 14h54.35.589250 -0300,
Estimulo_6,20,20,0,3.1,-3.1,3.1,-3.1,2.2,-2.2,-2.2,2.2,0,2,2,5,,,,,,,,,,,,,,,,,,,,,0,20,20,20,,,,,,,,,,,,,,,,,,,,,,,,,53.86308860000008,,,,,,,,,,,,,,,,,,,,,,,53.84952780000003,53.86308860000008,53.86308860000008,53.86308860000008,54.14911780000011,54.14936210000042,54.16315630000008,54.16315630000008,54.16315630000008,54.448924799999986,54.16315630000008,54.16315630000008,54.16315630000008,54.463097800000014,54.463097800000014,54.463097800000014,733003,001,2025-03-17_14h54.29.595,Estimulo_ICE,2024.2.4,59.97782020203209,2025-03-17 14h54.35.589250 -0300,
Estimulo_6,21,21,0,3.2,-3.2,3.2,-3.2,2.2,-2.2,-2.2,2.2,0,2,2,5,,,,,,,,,,,,,,,,,,,,,0,21,21,21,,,,,,,,,,,,,,,,,,,,,,,,,54.463097800000014,,,,,,,,,,,,,,,,,,,,,,,54.44929250000041,54.463097800000014,54.463097800000014,54.463097800000014,54.74904250000009,54.74929650000013,54.76310110000031,54.76310110000031,54.76310110000031,55.049121000000014,54.76310110000031,54.76310110000031,54.76310110000031,55.06312400000024,55.06312400000024,55.06312400000024,733003,001,2025-03-17_14h54.29.595,Estimulo_ICE,2024.2.4,59.97782020203209,2025-03-17 14h54.35.589250 -0300,
Estimulo_6,22,22,0,3.3,-3.3,3.3,-3.3,2.2,-2.2,-2.2,2.2,0,2,2,5,,,,,,,,,,,,,,,,,,,,,0,22,22,22,,,,,,,,,,,,,,,,,,,,,,,,,55.06312400000024,,,,,,,,,,,,,,,,,,,,,,,55.04949130000023,55.06312400000024,55.06312400000024,55.06312400000024,55.34899670000004,55.34925020000037,55.363150900000164,55.363150900000164,55.363150900000164,55.649064700000054,55.363150900000164,55.363150900000164,55.363150900000164,55.663109500000246,55.663109500000246,55.663109500000246,733003,001,2025-03-17_14h54.29.595,Estimulo_ICE,2024.2.4,59.97782020203209,2025-03-17 14h54.35.589250 -0300,
Estimulo_6,23,23,0,3.4,-3.4,3.4,-3.4,2.2,-2.2,-2.2,2.2,0,2,2,5,,,,,,,,,,,,,,,,,,,,,0,23,23,23,,,,,,,,,,,,,,,,,,,,,,,,,55.663109500000246,,,,,,,,,,,,,,,,,,,,,,,55.649434400000246,55.663109500000246,55.663109500000246,55.663109500000246,55.949016400000346,55.94927160000043,55.96283149999999,55.96283149999999,55.96283149999999,56.24907480000002,55.96283149999999,55.96283149999999,55.96283149999999,56.26302960000021,56.26302960000021,56.26302960000021,733003,001,2025-03-17_14h54.29.595,Estimulo_ICE,2024.2.4,59.97782020203209,2025-03-17 14h54.35.589250 -0300,
Estimulo_6,24,24,0,3.5,-3.5,3.5,-3.5,2.2,-2.2,-2.2,2.2,0,2,2,5,,,,,,,,,,,,,,,,,,,,,0,24,24,24,,,,,,,,,,,,,,,,,,,,,,,,,56.26302960000021,,,,,,,,,,,,,,,,,,,,,,,56.249447800000326,56.26302960000021,56.26302960000021,56.26302960000021,56.5489378000002,56.549192100000255,56.56307670000024,56.56307670000024,56.56307670000024,56.84890290000021,56.56307670000024,56.56307670000024,56.56307670000024,56.86308589999999,56.86308589999999,56.86308589999999,733003,001,2025-03-17_14h54.29.595,Estimulo_ICE,2024.2.4,59.97782020203209,2025-03-17 14h54.35.589250 -0300,
Estimulo_6,25,25,0,3.6,-3.6,3.6,-3.6,2.2,-2.2,-2.2,2.2,0,2,2,5,,,,,,,,,,,,,,,,,,,,,0,25,25,25,,,,,,,,,,,,,,,,,,,,,,,,,56.86308589999999,,,,,,,,,,,,,,,,,,,,,,,56.849275300000045,56.86308589999999,56.86308589999999,56.86308589999999,57.14901290000034,57.149263800000426,57.16295980000041,57.16295980000041,57.16295980000041,57.449121800000285,57.16295980000041,57.16295980000041,57.16295980000041,57.46307260000003,57.46307260000003,57.46307260000003,733003,001,2025-03-17_14h54.29.595,Estimulo_ICE,2024.2.4,59.97782020203209,2025-03-17 14h54.35.589250 -0300,
Estimulo_6,26,26,0,3.7,-3.7,3.7,-3.7,2.2,-2.2,-2.2,2.2,0,2,2,5,,,,,,,,,,,,,,,,,,,,,0,26,26,26,,,,,,,,,,,,,,,,,,,,,,,,,57.46307260000003,,,,,,,,,,,,,,,,,,,,,,,57.44948970000041,57.46307260000003,57.46307260000003,57.46307260000003,57.749021500000254,57.74927290000005,57.76307540000016,57.76307540000016,57.76307540000016,58.048961599999984,57.76307540000016,57.76307540000016,57.76307540000016,58.06285200000002,58.06285200000002,58.06285200000002,733003,001,2025-03-17_14h54.29.595,Estimulo_ICE,2024.2.4,59.97782020203209,2025-03-17 14h54.35.589250 -0300,
Estimulo_6,27,27,0,3.8,-3.8,3.8,-3.8,2.2,-2.2,-2.2,2.2,0,2,2,5,,,,,,,,,,,,,,,,,,,,,0,27,27,27,,,,,,,,,,,,,,,,,,,,,,,,,58.06285200000002,,,,,,,,,,,,,,,,,,,,,,,58.049331500000335,58.06285200000002,58.06285200000002,58.06285200000002,58.33572950000007,58.33605660000012,58.34640790000003,58.34640790000003,58.34640790000003,58.63239450000037,,,,58.64749630000006,58.64749630000006,58.64749630000006,733003,001,2025-03-17_14h54.29.595,Estimulo_ICE,2024.2.4,59.97782020203209,2025-03-17 14h54.35.589250 -0300,
Estimulo_6,28,28,0,3.9,-3.9,3.9,-3.9,2.2,-2.2,-2.2,2.2,0,2,2,5,,,,,,,,,,,,,,,,,,,,,0,28,28,28,,,,,,,,,,,,,,,,,,,,,,,,,58.64749630000006,,,,,,,,,,,,,,,,,,,,,,,58.63272270000016,58.664409100000285,58.664409100000285,58.664409100000285,58.94921520000025,58.94950170000038,58.96313650000002,58.96313650000002,58.96313650000002,59.249061900000015,,,,59.26329520000036,59.26329520000036,59.26329520000036,733003,001,2025-03-17_14h54.29.595,Estimulo_ICE,2024.2.4,59.97782020203209,2025-03-17 14h54.35.589250 -0300,
Estimulo_6,29,29,0,4,-4,4,-4,2.2,-2.2,-2.2,2.2,0,2,2,5,,,,,,,,,,,,,,,,,,,,,0,29,29,29,,,,,,,,,,,,,,,,,,,,,,,,,59.26329520000036,,,,,,,,,,,,,,,,,,,,,,,59.249488400000246,59.26329520000036,59.26329520000036,59.26329520000036,59.54905110000027,59.549305600000025,59.563050600000224,59.563050600000224,59.563050600000224,59.84906920000003,59.563050600000224,59.563050600000224,59.563050600000224,59.86301160000039,59.86301160000039,59.86301160000039,733003,001,2025-03-17_14h54.29.595,Estimulo_ICE,2024.2.4,59.97782020203209,2025-03-17 14h54.35.589250 -0300,
Estimulo_6,30,30,0,4.1,-4.1,4.1,-4.1,2.2,-2.2,-2.2,2.2,0,2,2,5,,,,,,,,,,,,,,,,,,,,,0,30,30,30,,,,,,,,,,,,,,,,,,,,,,,,,59.86301160000039,,,,,,,,,,,,,,,,,,,,,,,59.84943880000037,59.86301160000039,59.86301160000039,59.86301160000039,60.14905020000015,60.149295300000176,60.16317990000016,60.16317990000016,60.16317990000016,60.45161690000032,60.16317990000016,60.16317990000016,60.16317990000016,,,,733003,001,2025-03-17_14h54.29.595,Estimulo_ICE,2024.2.4,59.97782020203209,2025-03-17 14h54.35.589250 -0300,
Estimulo_6,31,31,0,4.2,-4.2,4.2,-4.2,2.2,-2.2,-2.2,2.2,0,2,2,5,,,,,,,,,,,,,,,,,,,,,0,31,31,31,,,,,,,,,,,,,,,,,,,,,,,,,60.46398330000011,,,,,,,,,,,,,,,,,,,,,,,60.45229660000041,60.46398330000011,60.46398330000011,60.46398330000011,60.75162750000027,60.75208140000041,60.7641222000002,60.7641222000002,60.7641222000002,61.049478700000236,,,,,,,733003,001,2025-03-17_14h54.29.595,Estimulo_ICE,2024.2.4,59.97782020203209,2025-03-17 14h54.35.589250 -0300,
Estimulo_6,32,32,0,4.3,-4.3,4.3,-4.3,2.2,-2.2,-2.2,2.2,0,2,2,5,,,,,,,,,,,,,,,,,,,,,0,32,32,32,,,,,,,,,,,,,,,,,,,,,,,,,61.06323450000036,,,,,,,,,,,,,,,,,,,,,,,61.04992590000029,61.06323450000036,61.06323450000036,61.06323450000036,61.349688700000115,61.35000500000024,61.363265500000125,61.363265500000125,61.363265500000125,61.65134990000024,61.363265500000125,61.363265500000125,61.363265500000125,,,,733003,001,2025-03-17_14h54.29.595,Estimulo_ICE,2024.2.4,59.97782020203209,2025-03-17 14h54.35.589250 -0300,
Estimulo_6,33,33,0,4.4,-4.4,4.4,-4.4,2.2,-2.2,-2.2,2.2,0,2,2,5,,,,,,,,,,,,,,,,,,,,,0,33,33,33,,,,,,,,,,,,,,,,,,,,,,,,,61.66400629999998,,,,,,,,,,,,,,,,,,,,,,,61.65198559999999,61.66400629999998,61.66400629999998,61.66400629999998,61.94949110000016,61.94979020000028,61.96295940000027,61.96295940000027,61.96295940000027,62.24968200000012,61.96295940000027,61.96295940000027,61.96295940000027,62.34588210000038,62.34588210000038,62.34588210000038,733003,001,2025-03-17_14h54.29.595,Estimulo_ICE,2024.2.4,59.97782020203209,2025-03-17 14h54.35.589250 -0300,
Estimulo_6,2,2,0,,,,,,,,,0,2,2,5,,,,,,,,,,,,,,,,,,,,,,,,,,,,,,,,,,,,,,,,,,,,,,,,,,,,,,,,,,,,,,,,,,62.333119500000066,62.34588210000038,62.76526490000015,,,,,,,,,,,,,,,,,,,,733003,001,2025-03-17_14h54.29.595,Estimulo_ICE,2024.2.4,59.97782020203209,2025-03-17 14h54.35.589250 -0300,
Estimulo_7,0,0,0,2.2,-2.2,-2.2,2.2,4.4,-4.4,4.4,-4.4,0,3,3,6,,,,,,,,,,,,,,,,,,,,,,,,,0,0,0,0,,,,,,,,,,,,,,,,,,,,,62.862375500000326,,62.76537210000015,62.76571590000003,,,,,,,,,,,,,,,,,,,,62.85294040000008,62.862375500000326,62.862375500000326,62.862375500000326,63.06642320000037,63.06675430000041,63.08001690000037,63.08001690000037,63.08001690000037,63.3663147000002,,,,,,,733003,001,2025-03-17_14h54.29.595,Estimulo_ICE,2024.2.4,59.97782020203209,2025-03-17 14h54.35.589250 -0300,
Estimulo_7,1,1,0,2.2,-2.2,-2.2,2.2,4.3,-4.3,4.3,-4.3,0,3,3,6,,,,,,,,,,,,,,,,,,,,,,,,,0,1,1,1,,,,,,,,,,,,,,,,,,,,,63.38045950000014,,,,,,,,,,,,,,,,,,,,,,,63.36679950000007,63.38045950000014,63.38045950000014,63.38045950000014,63.66638560000001,63.66671610000003,63.6798474000002,63.6798474000002,63.6798474000002,63.96626610000021,,,,,,,733003,001,2025-03-17_14h54.29.595,Estimulo_ICE,2024.2.4,59.97782020203209,2025-03-17 14h54.35.589250 -0300,
Estimulo_7,2,2,0,2.2,-2.2,-2.2,2.2,4.2,-4.2,4.2,-4.2,0,3,3,6,,,,,,,,,,,,,,,,,,,,,,,,,0,2,2,2,,,,,,,,,,,,,,,,,,,,,63.97984290000022,,,,,,,,,,,,,,,,,,,,,,,63.96679410000024,63.97984290000022,63.97984290000022,63.97984290000022,64.2662121000003,64.26653750000014,64.28006140000025,64.28006140000025,64.28006140000025,64.5663811000004,,,,,,,733003,001,2025-03-17_14h54.29.595,Estimulo_ICE,2024.2.4,59.97782020203209,2025-03-17 14h54.35.589250 -0300,
Estimulo_7,3,3,0,2.2,-2.2,-2.2,2.2,4.1,-4.1,4.1,-4.1,0,3,3,6,,,,,,,,,,,,,,,,,,,,,,,,,0,3,3,3,,,,,,,,,,,,,,,,,,,,,64.58012770000005,,,,,,,,,,,,,,,,,,,,,,,64.56686310000032,64.58012770000005,64.58012770000005,64.58012770000005,64.86545560000013,64.86570940000001,64.87970220000034,64.87970220000034,64.87970220000034,65.16568860000007,64.87970220000034,64.87970220000034,64.87970220000034,65.1796661000003,65.1796661000003,65.1796661000003,733003,001,2025-03-17_14h54.29.595,Estimulo_ICE,2024.2.4,59.97782020203209,2025-03-17 14h54.35.589250 -0300,
Estimulo_7,4,4,0,2.2,-2.2,-2.2,2.2,4,-4,4,-4,0,3,3,6,,,,,,,,,,,,,,,,,,,,,,,,,0,4,4,4,,,,,,,,,,,,,,,,,,,,,65.1796661000003,,,,,,,,,,,,,,,,,,,,,,,65.16606460000003,65.1796661000003,65.1796661000003,65.1796661000003,65.46558480000022,65.46583900000041,65.47949300000028,65.47949300000028,65.47949300000028,65.7656092000002,65.47949300000028,65.47949300000028,65.47949300000028,65.77966210000022,65.77966210000022,65.77966210000022,733003,001,2025-03-17_14h54.29.595,Estimulo_ICE,2024.2.4,59.97782020203209,2025-03-17 14h54.35.589250 -0300,
Estimulo_7,5,5,0,2.2,-2.2,-2.2,2.2,3.9,-3.9,3.9,-3.9,0,3,3,6,,,,,,,,,,,,,,,,,,,,,,,,,0,5,5,5,,,,,,,,,,,,,,,,,,,,,65.77966210000022,,,,,,,,,,,,,,,,,,,,,,,65.76598260000037,65.77966210000022,65.77966210000022,65.77966210000022,66.06546750000007,66.06572000000006,66.0796876000004,66.0796876000004,66.0796876000004,66.36552250000022,66.0796876000004,66.0796876000004,66.0796876000004,66.37999100000025,66.37999100000025,66.37999100000025,733003,001,2025-03-17_14h54.29.595,Estimulo_ICE,2024.2.4,59.97782020203209,2025-03-17 14h54.35.589250 -0300,
Estimulo_7,6,6,0,2.2,-2.2,-2.2,2.2,3.8,-3.8,3.8,-3.8,0,3,3,6,,,,,,,,,,,,,,,,,,,,,,,,,0,6,6,6,,,,,,,,,,,,,,,,,,,,,66.37999100000025,,,,,,,,,,,,,,,,,,,,,,,66.36588110000002,66.37999100000025,66.37999100000025,66.37999100000025,66.66551160000017,66.66576410000016,66.6796730000001,66.6796730000001,66.6796730000001,66.96547050000027,66.6796730000001,66.6796730000001,66.6796730000001,66.9796709000002,66.9796709000002,66.9796709000002,733003,001,2025-03-17_14h54.29.595,Estimulo_ICE,2024.2.4,59.97782020203209,2025-03-17 14h54.35.589250 -0300,
Estimulo_7,7,7,0,2.2,-2.2,-2.2,2.2,3.7,-3.7,3.7,-3.7,0,3,3,6,,,,,,,,,,,,,,,,,,,,,,,,,0,7,7,7,,,,,,,,,,,,,,,,,,,,,66.9796709000002,,,,,,,,,,,,,,,,,,,,,,,66.9659101000002,66.9796709000002,66.9796709000002,66.9796709000002,67.26564890000009,67.26590260000012,67.27948940000033,67.27948940000033,67.27948940000033,67.56565770000043,67.27948940000033,67.27948940000033,67.27948940000033,67.57965160000003,67.57965160000003,67.57965160000003,733003,001,2025-03-17_14h54.29.595,Estimulo_ICE,2024.2.4,59.97782020203209,2025-03-17 14h54.35.589250 -0300,
Estimulo_7,8,8,0,2.2,-2.2,-2.2,2.2,3.6,-3.6,3.6,-3.6,0,3,3,6,,,,,,,,,,,,,,,,,,,,,,,,,0,8,8,8,,,,,,,,,,,,,,,,,,,,,67.57965160000003,,,,,,,,,,,,,,,,,,,,,,,67.56603290000021,67.57965160000003,67.57965160000003,67.57965160000003,67.86522330000025,67.86544730000014,67.8796510000002,67.8796510000002,67.8796510000002,68.16550940000025,67.8796510000002,67.8796510000002,67.8796510000002,68.17965690000028,68.17965690000028,68.17965690000028,733003,001,2025-03-17_14h54.29.595,Estimulo_ICE,2024.2.4,59.97782020203209,2025-03-17 14h54.35.589250 -0300,
Estimulo_7,9,9,0,2.2,-2.2,-2.2,2.2,3.5,-3.5,3.5,-3.5,0,3,3,6,,,,,,,,,,,,,,,,,,,,,,,,,0,9,9,9,,,,,,,,,,,,,,,,,,,,,68.17965690000028,,,,,,,,,,,,,,,,,,,,,,,68.16588480000019,68.17965690000028,68.17965690000028,68.17965690000028,68.46559040000011,68.46584230000008,68.47968270000001,68.47968270000001,68.47968270000001,68.76582280000002,68.47968270000001,68.47968270000001,68.47968270000001,68.77961750000031,68.77961750000031,68.77961750000031,733003,001,2025-03-17_14h54.29.595,Estimulo_ICE,2024.2.4,59.97782020203209,2025-03-17 14h54.35.589250 -0300,
Estimulo_7,10,10,0,2.2,-2.2,-2.2,2.2,3.39999999999999,-3.39999999999999,3.39999999999999,-3.39999999999999,0,3,3,6,,,,,,,,,,,,,,,,,,,,,,,,,0,10,10,10,,,,,,,,,,,,,,,,,,,,,68.77961750000031,,,,,,,,,,,,,,,,,,,,,,,68.76619720000008,68.77961750000031,68.77961750000031,68.77961750000031,69.0655654000002,69.06581649999998,69.0797579,69.0797579,69.0797579,69.36560500000041,69.0797579,69.0797579,69.0797579,69.37946290000036,69.37946290000036,69.37946290000036,733003,001,2025-03-17_14h54.29.595,Estimulo_ICE,2024.2.4,59.97782020203209,2025-03-17 14h54.35.589250 -0300,
Estimulo_7,11,11,0,2.2,-2.2,-2.2,2.2,3.29999999999999,-3.29999999999999,3.29999999999999,-3.29999999999999,0,3,3,6,,,,,,,,,,,,,,,,,,,,,,,,,0,11,11,11,,,,,,,,,,,,,,,,,,,,,69.37946290000036,,,,,,,,,,,,,,,,,,,,,,,69.36597560000018,69.37946290000036,69.37946290000036,69.37946290000036,69.66775630000029,69.6681692000002,69.68041680000033,69.68041680000033,69.68041680000033,69.96747190000042,,,,,,,733003,001,2025-03-17_14h54.29.595,Estimulo_ICE,2024.2.4,59.97782020203209,2025-03-17 14h54.35.589250 -0300,
Estimulo_7,12,12,0,2.2,-2.2,-2.2,2.2,3.19999999999999,-3.19999999999999,3.19999999999999,-3.19999999999999,0,3,3,6,,,,,,,,,,,,,,,,,,,,,,,,,0,12,12,12,,,,,,,,,,,,,,,,,,,,,69.9802681000001,,,,,,,,,,,,,,,,,,,,,,,69.96808630000032,69.9802681000001,69.9802681000001,69.9802681000001,70.26610560000017,70.26639360000036,70.27975220000008,70.27975220000008,70.27975220000008,70.56613640000023,70.27975220000008,70.27975220000008,70.27975220000008,70.57977410000012,70.57977410000012,70.57977410000012,733003,001,2025-03-17_14h54.29.595,Estimulo_ICE,2024.2.4,59.97782020203209,2025-03-17 14h54.35.589250 -0300,
Estimulo_7,13,13,0,2.2,-2.2,-2.2,2.2,3.09999999999999,-3.09999999999999,3.09999999999999,-3.09999999999999,0,3,3,6,,,,,,,,,,,,,,,,,,,,,,,,,0,13,13,13,,,,,,,,,,,,,,,,,,,,,70.57977410000012,,,,,,,,,,,,,,,,,,,,,,,70.56656350000003,70.57977410000012,70.57977410000012,70.57977410000012,70.86568110000007,70.8659316000003,70.87958460000027,70.87958460000027,70.87958460000027,71.16550890000008,70.87958460000027,70.87958460000027,70.87958460000027,71.17972350000036,71.17972350000036,71.17972350000036,733003,001,2025-03-17_14h54.29.595,Estimulo_ICE,2024.2.4,59.97782020203209,2025-03-17 14h54.35.589250 -0300,
Estimulo_7,14,14,0,2.2,-2.2,-2.2,2.2,2.99999999999999,-2.99999999999999,2.99999999999999,-2.99999999999999,0,3,3,6,,,,,,,,,,,,,,,,,,,,,,,,,0,14,14,14,,,,,,,,,,,,,,,,,,,,,71.17972350000036,,,,,,,,,,,,,,,,,,,,,,,71.1658865000004,71.17972350000036,71.17972350000036,71.17972350000036,71.46562010000025,71.46587110000019,71.4796193000002,71.4796193000002,71.4796193000002,71.76568210000005,71.4796193000002,71.4796193000002,71.4796193000002,71.7796056000002,71.7796056000002,71.7796056000002,733003,001,2025-03-17_14h54.29.595,Estimulo_ICE,2024.2.4,59.97782020203209,2025-03-17 14h54.35.589250 -0300,
Estimulo_7,15,15,0,2.2,-2.2,-2.2,2.2,2.89999999999999,-2.89999999999999,2.89999999999999,-2.89999999999999,0,3,3,6,,,,,,,,,,,,,,,,,,,,,,,,,0,15,15,15,,,,,,,,,,,,,,,,,,,,,71.7796056000002,,,,,,,,,,,,,,,,,,,,,,,71.7660562000001,71.7796056000002,71.7796056000002,71.7796056000002,72.06543200000033,72.06568440000001,72.0796191000004,72.0796191000004,72.0796191000004,72.36576330000025,72.0796191000004,72.0796191000004,72.0796191000004,72.37943370000039,72.37943370000039,72.37943370000039,733003,001,2025-03-17_14h54.29.595,Estimulo_ICE,2024.2.4,59.97782020203209,2025-03-17 14h54.35.589250 -0300,
Estimulo_7,16,16,0,2.2,-2.2,-2.2,2.2,2.79999999999999,-2.79999999999999,2.79999999999999,-2.79999999999999,0,3,3,6,,,,,,,,,,,,,,,,,,,,,,,,,0,16,16,16,,,,,,,,,,,,,,,,,,,,,72.37943370000039,,,,,,,,,,,,,,,,,,,,,,,72.36616330000015,72.37943370000039,72.37943370000039,72.37943370000039,72.66820960000041,72.66866340000024,72.68064130000039,72.68064130000039,72.68064130000039,72.96617790000028,,,,72.97958900000003,72.97958900000003,72.97958900000003,733003,001,2025-03-17_14h54.29.595,Estimulo_ICE,2024.2.4,59.97782020203209,2025-03-17 14h54.35.589250 -0300,
Estimulo_7,17,17,0,2.2,-2.2,-2.2,2.2,2.69999999999999,-2.69999999999999,2.69999999999999,-2.69999999999999,0,3,3,6,,,,,,,,,,,,,,,,,,,,,,,,,0,17,17,17,,,,,,,,,,,,,,,,,,,,,72.97958900000003,,,,,,,,,,,,,,,,,,,,,,,72.96664940000028,72.97958900000003,72.97958900000003,72.97958900000003,73.26601280000023,73.26630860000023,73.27972490000002,73.27972490000002,73.27972490000002,73.56610940000019,73.27972490000002,73.27972490000002,73.27972490000002,73.57980810000026,73.57980810000026,73.57980810000026,733003,001,2025-03-17_14h54.29.595,Estimulo_ICE,2024.2.4,59.97782020203209,2025-03-17 14h54.35.589250 -0300,
Estimulo_7,18,18,0,2.2,-2.2,-2.2,2.2,2.59999999999999,-2.59999999999999,2.59999999999999,-2.59999999999999,0,3,3,6,,,,,,,,,,,,,,,,,,,,,,,,,0,18,18,18,,,,,,,,,,,,,,,,,,,,,73.57980810000026,,,,,,,,,,,,,,,,,,,,,,,73.56655050000018,73.57980810000026,73.57980810000026,73.57980810000026,73.86611950000042,73.86641780000036,73.87971050000033,73.87971050000033,73.87971050000033,74.16558290000012,73.87971050000033,73.87971050000033,73.87971050000033,74.17959550000023,74.17959550000023,74.17959550000023,733003,001,2025-03-17_14h54.29.595,Estimulo_ICE,2024.2.4,59.97782020203209,2025-03-17 14h54.35.589250 -0300,
Estimulo_7,19,19,0,2.2,-2.2,-2.2,2.2,2.49999999999999,-2.49999999999999,2.49999999999999,-2.49999999999999,0,3,3,6,,,,,,,,,,,,,,,,,,,,,,,,,0,19,19,19,,,,,,,,,,,,,,,,,,,,,74.17959550000023,,,,,,,,,,,,,,,,,,,,,,,74.1659638000001,74.17959550000023,74.17959550000023,74.17959550000023,74.46577760000037,74.46602980000034,74.47959300000002,74.47959300000002,74.47959300000002,74.76558510000041,74.47959300000002,74.47959300000002,74.47959300000002,74.7795801000002,74.7795801000002,74.7795801000002,733003,001,2025-03-17_14h54.29.595,Estimulo_ICE,2024.2.4,59.97782020203209,2025-03-17 14h54.35.589250 -0300,
Estimulo_7,20,20,0,2.2,-2.2,-2.2,2.2,2.39999999999999,-2.39999999999999,2.39999999999999,-2.39999999999999,0,3,3,6,,,,,,,,,,,,,,,,,,,,,,,,,0,20,20,20,,,,,,,,,,,,,,,,,,,,,74.7795801000002,,,,,,,,,,,,,,,,,,,,,,,74.7659590000003,74.7795801000002,74.7795801000002,74.7795801000002,75.05575140000019,75.05649480000011,75.06501190000017,75.06501190000017,75.06501190000017,75.36601110000038,,,,75.37958990000016,75.37958990000016,75.37958990000016,733003,001,2025-03-17_14h54.29.595,Estimulo_ICE,2024.2.4,59.97782020203209,2025-03-17 14h54.35.589250 -0300,
Estimulo_7,21,21,0,2.2,-2.2,-2.2,2.2,2.29999999999999,-2.29999999999999,2.29999999999999,-2.29999999999999,0,3,3,6,,,,,,,,,,,,,,,,,,,,,,,,,0,21,21,21,,,,,,,,,,,,,,,,,,,,,75.37958990000016,,,,,,,,,,,,,,,,,,,,,,,75.36642500000016,75.37958990000016,75.37958990000016,75.37958990000016,75.66536270000006,75.66561620000039,75.67957380000007,75.67957380000007,75.67957380000007,75.96547660000033,75.67957380000007,75.67957380000007,75.67957380000007,75.9796139,75.9796139,75.9796139,733003,001,2025-03-17_14h54.29.595,Estimulo_ICE,2024.2.4,59.97782020203209,2025-03-17 14h54.35.589250 -0300,
Estimulo_7,22,22,0,2.2,-2.2,-2.2,2.2,2.19999999999999,-2.19999999999999,2.19999999999999,-2.19999999999999,0,3,3,6,,,,,,,,,,,,,,,,,,,,,,,,,0,22,22,22,,,,,,,,,,,,,,,,,,,,,75.9796139,,,,,,,,,,,,,,,,,,,,,,,75.96585630000027,75.9796139,75.9796139,75.9796139,76.26558169999998,76.26583560000017,76.27957180000021,76.27957180000021,76.27957180000021,76.56558940000014,76.27957180000021,76.27957180000021,76.27957180000021,76.57965170000034,76.57965170000034,76.57965170000034,733003,001,2025-03-17_14h54.29.595,Estimulo_ICE,2024.2.4,59.97782020203209,2025-03-17 14h54.35.589250 -0300,
Estimulo_7,23,23,0,2.2,-2.2,-2.2,2.2,2.09999999999999,-2.09999999999999,2.09999999999999,-2.09999999999999,0,3,3,6,,,,,,,,,,,,,,,,,,,,,,,,,0,23,23,23,,,,,,,,,,,,,,,,,,,,,76.57965170000034,,,,,,,,,,,,,,,,,,,,,,,76.56596390000004,76.57965170000034,76.57965170000034,76.57965170000034,76.86548430000039,76.86573730000009,76.87972930000024,76.87972930000024,76.87972930000024,77.16532410000036,76.87972930000024,76.87972930000024,76.87972930000024,77.17960060000041,77.17960060000041,77.17960060000041,733003,001,2025-03-17_14h54.29.595,Estimulo_ICE,2024.2.4,59.97782020203209,2025-03-17 14h54.35.589250 -0300,
Estimulo_7,24,24,0,2.2,-2.2,-2.2,2.2,1.99999999999999,-1.99999999999999,1.99999999999999,-1.99999999999999,0,3,3,6,,,,,,,,,,,,,,,,,,,,,,,,,0,24,24,24,,,,,,,,,,,,,,,,,,,,,77.17960060000041,,,,,,,,,,,,,,,,,,,,,,,77.1657008000002,77.17960060000041,77.17960060000041,77.17960060000041,77.46532120000029,77.46557410000014,77.4796179,77.4796179,77.4796179,77.76562360000025,77.4796179,77.4796179,77.4796179,77.77946750000001,77.77946750000001,77.77946750000001,733003,001,2025-03-17_14h54.29.595,Estimulo_ICE,2024.2.4,59.97782020203209,2025-03-17 14h54.35.589250 -0300,
Estimulo_7,25,25,0,2.2,-2.2,-2.2,2.2,1.89999999999999,-1.89999999999999,1.89999999999999,-1.89999999999999,0,3,3,6,,,,,,,,,,,,,,,,,,,,,,,,,0,25,25,25,,,,,,,,,,,,,,,,,,,,,77.77946750000001,,,,,,,,,,,,,,,,,,,,,,,77.76599850000002,77.77946750000001,77.77946750000001,77.77946750000001,78.06532010000001,78.06557100000009,78.0795892000001,78.0795892000001,78.0795892000001,78.36553900000035,78.0795892000001,78.0795892000001,78.0795892000001,78.37960570000041,78.37960570000041,78.37960570000041,733003,001,2025-03-17_14h54.29.595,Estimulo_ICE,2024.2.4,59.97782020203209,2025-03-17 14h54.35.589250 -0300,
Estimulo_7,26,26,0,2.2,-2.2,-2.2,2.2,1.79999999999999,-1.79999999999999,1.79999999999999,-1.79999999999999,0,3,3,6,,,,,,,,,,,,,,,,,,,,,,,,,0,26,26,26,,,,,,,,,,,,,,,,,,,,,78.37960570000041,,,,,,,,,,,,,,,,,,,,,,,78.36589730000014,78.37960570000041,78.37960570000041,78.37960570000041,78.65674239999998,78.65754770000012,78.68060110000033,78.68060110000033,78.68060110000033,78.97184860000016,,,,,,,733003,001,2025-03-17_14h54.29.595,Estimulo_ICE,2024.2.4,59.97782020203209,2025-03-17 14h54.35.589250 -0300,
Estimulo_7,27,27,0,2.2,-2.2,-2.2,2.2,1.69999999999999,-1.69999999999999,1.69999999999999,-1.69999999999999,0,3,3,6,,,,,,,,,,,,,,,,,,,,,,,,,0,27,27,27,,,,,,,,,,,,,,,,,,,,,78.97973620000039,,,,,,,,,,,,,,,,,,,,,,,78.9728599,78.97973620000039,78.97973620000039,78.97973620000039,79.2658977000001,79.26619410000012,79.27987470000016,79.27987470000016,79.27987470000016,79.57074280000006,,,,,,,733003,001,2025-03-17_14h54.29.595,Estimulo_ICE,2024.2.4,59.97782020203209,2025-03-17 14h54.35.589250 -0300,
Estimulo_7,28,28,0,2.2,-2.2,-2.2,2.2,1.59999999999999,-1.59999999999999,1.59999999999999,-1.59999999999999,0,3,3,6,,,,,,,,,,,,,,,,,,,,,,,,,0,28,28,28,,,,,,,,,,,,,,,,,,,,,79.5803675000002,,,,,,,,,,,,,,,,,,,,,,,79.57169860000022,79.5803675000002,79.5803675000002,79.5803675000002,79.86591770000041,79.86620710000034,79.8797824000003,79.8797824000003,79.8797824000003,80.16584600000033,79.8797824000003,79.8797824000003,79.8797824000003,80.17983380000032,80.17983380000032,80.17983380000032,733003,001,2025-03-17_14h54.29.595,Estimulo_ICE,2024.2.4,59.97782020203209,2025-03-17 14h54.35.589250 -0300,
Estimulo_7,29,29,0,2.2,-2.2,-2.2,2.2,1.49999999999998,-1.49999999999998,1.49999999999998,-1.49999999999998,0,3,3,6,,,,,,,,,,,,,,,,,,,,,,,,,0,29,29,29,,,,,,,,,,,,,,,,,,,,,80.17983380000032,,,,,,,,,,,,,,,,,,,,,,,80.1662736000003,80.17983380000032,80.17983380000032,80.17983380000032,80.4659686,80.4662545000001,80.47948430000042,80.47948430000042,80.47948430000042,80.76585620000014,80.47948430000042,80.47948430000042,80.47948430000042,80.77973800000018,80.77973800000018,80.77973800000018,733003,001,2025-03-17_14h54.29.595,Estimulo_ICE,2024.2.4,59.97782020203209,2025-03-17 14h54.35.589250 -0300,
Estimulo_7,30,30,0,2.2,-2.2,-2.2,2.2,1.39999999999998,-1.39999999999998,1.39999999999998,-1.39999999999998,0,3,3,6,,,,,,,,,,,,,,,,,,,,,,,,,0,30,30,30,,,,,,,,,,,,,,,,,,,,,80.77973800000018,,,,,,,,,,,,,,,,,,,,,,,80.76628470000014,80.77973800000018,80.77973800000018,80.77973800000018,81.06536910000023,81.06562120000035,81.0795605000003,81.0795605000003,81.0795605000003,81.36551500000041,81.0795605000003,81.0795605000003,81.0795605000003,81.37962340000013,81.37962340000013,81.37962340000013,733003,001,2025-03-17_14h54.29.595,Estimulo_ICE,2024.2.4,59.97782020203209,2025-03-17 14h54.35.589250 -0300,
Estimulo_7,31,31,0,2.2,-2.2,-2.2,2.2,1.29999999999998,-1.29999999999998,1.29999999999998,-1.29999999999998,0,3,3,6,,,,,,,,,,,,,,,,,,,,,,,,,0,31,31,31,,,,,,,,,,,,,,,,,,,,,81.37962340000013,,,,,,,,,,,,,,,,,,,,,,,81.36589220000042,81.37962340000013,81.37962340000013,81.37962340000013,81.66544580000027,81.66570000000002,81.67938210000011,81.67938210000011,81.67938210000011,81.9662599000003,81.67938210000011,81.67938210000011,81.67938210000011,,,,733003,001,2025-03-17_14h54.29.595,Estimulo_ICE,2024.2.4,59.97782020203209,2025-03-17 14h54.35.589250 -0300,
Estimulo_7,32,32,0,2.2,-2.2,-2.2,2.2,1.19999999999998,-1.19999999999998,1.19999999999998,-1.19999999999998,0,3,3,6,,,,,,,,,,,,,,,,,,,,,,,,,0,32,32,32,,,,,,,,,,,,,,,,,,,,,81.97958050000034,,,,,,,,,,,,,,,,,,,,,,,81.96681660000013,81.97958050000034,81.97958050000034,81.97958050000034,82.26528970000027,82.26554110000006,82.27951890000031,82.27951890000031,82.27951890000031,82.56550370000014,82.27951890000031,82.27951890000031,82.27951890000031,82.58114840000007,82.58114840000007,82.58114840000007,733003,001,2025-03-17_14h54.29.595,Estimulo_ICE,2024.2.4,59.97782020203209,2025-03-17 14h54.35.589250 -0300,
Estimulo_7,33,33,0,2.2,-2.2,-2.2,2.2,1.09999999999998,-1.09999999999998,1.09999999999998,-1.09999999999998,0,3,3,6,,,,,,,,,,,,,,,,,,,,,,,,,0,33,33,33,,,,,,,,,,,,,,,,,,,,,82.58114840000007,,,,,,,,,,,,,,,,,,,,,,,82.56587710000031,82.58114840000007,82.58114840000007,82.58114840000007,82.86639790000027,82.86674520000042,82.88157360000014,82.88157360000014,82.88157360000014,83.16529390000005,,,,,,,733003,001,2025-03-17_14h54.29.595,Estimulo_ICE,2024.2.4,59.97782020203209,2025-03-17 14h54.35.589250 -0300,
Estimulo_7,3,3,0,,,,,,,,,0,3,3,6,,,,,,,,,,,,,,,,,,,,,,,,,,,,,,,,,,,,,,,,,,,,,,,,,,,,,,,,,,,,,,,,,,83.22842310000033,83.24574150000035,83.67062920000035,,,,,,,,,,,,,,,,,,,,733003,001,2025-03-17_14h54.29.595,Estimulo_ICE,2024.2.4,59.97782020203209,2025-03-17 14h54.35.589250 -0300,
Estimulo_1,0,0,0,4.4,-4.4,4.4,-4.4,2.2,-2.2,-2.2,2.2,0,4,4,0,0,0,0,0,,,,,,,,,,,,,,,,,,,,,,,,,,,,,,,,,,,,,,,,,,,,,83.7128429000004,,83.67089220000025,83.67161470000019,83.6943867,83.7128429000004,83.7128429000004,83.7128429000004,83.9846149,83.98504530000037,83.99696340000037,83.99696340000037,83.99696340000037,84.28427160000001,,,,,,,,,,,,,,,,,,,,,,,,,,733003,001,2025-03-17_14h54.29.595,Estimulo_ICE,2024.2.4,59.97782020203209,2025-03-17 14h54.35.589250 -0300,
Estimulo_1,1,1,0,4.3,-4.3,4.3,-4.3,2.2,-2.2,-2.2,2.2,0,4,4,0,0,1,1,1,,,,,,,,,,,,,,,,,,,,,,,,,,,,,,,,,,,,,,,,,,,,,84.29696899999999,,,,84.28488090000019,84.29696899999999,84.29696899999999,84.29696899999999,84.58402780000006,84.58443890000035,84.59696950000034,84.59696950000034,84.59696950000034,84.88469470000018,,,,,,,,,,,,,,,,,,,,,,,,,,733003,001,2025-03-17_14h54.29.595,Estimulo_ICE,2024.2.4,59.97782020203209,2025-03-17 14h54.35.589250 -0300,
Estimulo_1,2,2,0,4.2,-4.2,4.2,-4.2,2.2,-2.2,-2.2,2.2,0,4,4,0,0,2,2,2,,,,,,,,,,,,,,,,,,,,,,,,,,,,,,,,,,,,,,,,,,,,,84.89692260000038,,,,84.88531430000012,84.89692260000038,84.89692260000038,84.89692260000038,85.18434920000027,85.18476060000012,85.19735040000023,85.19735040000023,85.19735040000023,85.48410300000023,,,,,,,,,,,,,,,,,,,,,,,,,,733003,001,2025-03-17_14h54.29.595,Estimulo_ICE,2024.2.4,59.97782020203209,2025-03-17 14h54.35.589250 -0300,
Estimulo_1,3,3,0,4.1,-4.1,4.1,-4.1,2.2,-2.2,-2.2,2.2,0,4,4,0,0,3,3,3,,,,,,,,,,,,,,,,,,,,,,,,,,,,,,,,,,,,,,,,,,,,,85.49703390000013,,,,85.48473010000043,85.49703390000013,85.49703390000013,85.49703390000013,85.784134,85.78454810000039,85.79695880000008,85.79695880000008,85.79695880000008,86.08653640000011,,,,,,,,,,,,,,,,,,,,,,,,,,733003,001,2025-03-17_14h54.29.595,Estimulo_ICE,2024.2.4,59.97782020203209,2025-03-17 14h54.35.589250 -0300,
Estimulo_1,4,4,0,4,-4,4,-4,2.2,-2.2,-2.2,2.2,0,4,4,0,0,4,4,4,,,,,,,,,,,,,,,,,,,,,,,,,,,,,,,,,,,,,,,,,,,,,86.09954040000002,,,,86.08795330000021,86.09954040000002,86.09954040000002,86.09954040000002,86.3862267000004,86.38677320000033,86.39759290000029,86.39759290000029,86.39759290000029,86.68181040000036,,,,,,,,,,,,,,,,,,,,,,,,,,733003,001,2025-03-17_14h54.29.595,Estimulo_ICE,2024.2.4,59.97782020203209,2025-03-17 14h54.35.589250 -0300,
Estimulo_1,5,5,0,3.9,-3.9,3.9,-3.9,2.2,-2.2,-2.2,2.2,0,4,4,0,0,5,5,5,,,,,,,,,,,,,,,,,,,,,,,,,,,,,,,,,,,,,,,,,,,,,86.69634500000029,,,,86.68216680000023,86.69634500000029,86.69634500000029,86.69634500000029,86.98154220000015,86.98176140000032,86.99609020000025,86.99609020000025,86.99609020000025,87.28160969999999,,,,,,,,,,,,,,,,,,,,,,,,,,733003,001,2025-03-17_14h54.29.595,Estimulo_ICE,2024.2.4,59.97782020203209,2025-03-17 14h54.35.589250 -0300,
Estimulo_1,6,6,0,3.8,-3.8,3.8,-3.8,2.2,-2.2,-2.2,2.2,0,4,4,0,0,6,6,6,,,,,,,,,,,,,,,,,,,,,,,,,,,,,,,,,,,,,,,,,,,,,87.29618240000036,,,,87.28196539999999,87.29618240000036,87.29618240000036,87.29618240000036,87.58178980000002,87.5820249000003,87.59613590000026,87.59613590000026,87.59613590000026,87.88326270000016,,,,,,,,,,,,,,,,,,,,,,,,,,733003,001,2025-03-17_14h54.29.595,Estimulo_ICE,2024.2.4,59.97782020203209,2025-03-17 14h54.35.589250 -0300,
Estimulo_1,7,7,0,3.7,-3.7,3.7,-3.7,2.2,-2.2,-2.2,2.2,0,4,4,0,0,7,7,7,,,,,,,,,,,,,,,,,,,,,,,,,,,,,,,,,,,,,,,,,,,,,87.89623290000009,,,,87.88359720000017,87.89623290000009,87.89623290000009,87.89623290000009,88.18162740000025,88.18186320000041,88.19622000000027,88.19622000000027,88.19622000000027,88.48187570000027,,,,,,,,,,,,,,,,,,,,,,,,,,733003,001,2025-03-17_14h54.29.595,Estimulo_ICE,2024.2.4,59.97782020203209,2025-03-17 14h54.35.589250 -0300,
Estimulo_1,8,8,0,3.6,-3.6,3.6,-3.6,2.2,-2.2,-2.2,2.2,0,4,4,0,0,8,8,8,,,,,,,,,,,,,,,,,,,,,,,,,,,,,,,,,,,,,,,,,,,,,88.49615170000015,,,,88.4822521000001,88.49615170000015,88.49615170000015,88.49615170000015,88.78172640000003,88.78196160000016,88.79613530000006,88.79613530000006,88.79613530000006,89.08188370000016,,,,,,,,,,,,,,,,,,,,,,,,,,733003,001,2025-03-17_14h54.29.595,Estimulo_ICE,2024.2.4,59.97782020203209,2025-03-17 14h54.35.589250 -0300,
Estimulo_1,9,9,0,3.5,-3.5,3.5,-3.5,2.2,-2.2,-2.2,2.2,0,4,4,0,0,9,9,9,,,,,,,,,,,,,,,,,,,,,,,,,,,,,,,,,,,,,,,,,,,,,89.09615320000012,,,,89.08225930000026,89.09615320000012,89.09615320000012,89.09615320000012,89.38170590000027,89.38193850000016,89.39618900000005,89.39618900000005,89.39618900000005,89.68181130000039,,,,,,,,,,,,,,,,,,,,,,,,,,733003,001,2025-03-17_14h54.29.595,Estimulo_ICE,2024.2.4,59.97782020203209,2025-03-17 14h54.35.589250 -0300,
Estimulo_1,10,10,0,3.39999999999999,-3.39999999999999,3.39999999999999,-3.39999999999999,2.2,-2.2,-2.2,2.2,0,4,4,0,0,10,10,10,,,,,,,,,,,,,,,,,,,,,,,,,,,,,,,,,,,,,,,,,,,,,89.69618639999999,,,,89.68218640000032,89.69618639999999,89.69618639999999,89.69618639999999,89.98189050000019,89.98212380000041,89.9961672000004,89.9961672000004,89.9961672000004,90.28161320000027,,,,,,,,,,,,,,,,,,,,,,,,,,733003,001,2025-03-17_14h54.29.595,Estimulo_ICE,2024.2.4,59.97782020203209,2025-03-17 14h54.35.589250 -0300,
Estimulo_1,11,11,0,3.29999999999999,-3.29999999999999,3.29999999999999,-3.29999999999999,2.2,-2.2,-2.2,2.2,0,4,4,0,0,11,11,11,,,,,,,,,,,,,,,,,,,,,,,,,,,,,,,,,,,,,,,,,,,,,90.29613450000033,,,,90.28196740000021,90.29613450000033,90.29613450000033,90.29613450000033,90.58170960000007,90.58194680000042,90.59614780000038,90.59614780000038,90.59614780000038,90.88165830000025,,,,,,,,,,,,,,,,,,,,,,,,,,733003,001,2025-03-17_14h54.29.595,Estimulo_ICE,2024.2.4,59.97782020203209,2025-03-17 14h54.35.589250 -0300,
Estimulo_1,12,12,0,3.19999999999999,-3.19999999999999,3.19999999999999,-3.19999999999999,2.2,-2.2,-2.2,2.2,0,4,4,0,0,12,12,12,,,,,,,,,,,,,,,,,,,,,,,,,,,,,,,,,,,,,,,,,,,,,90.8961819000001,,,,90.88201040000013,90.8961819000001,90.8961819000001,90.8961819000001,91.18174630000021,91.1819786000001,91.19601650000004,91.19601650000004,91.19601650000004,91.48181950000026,,,,,,,,,,,,,,,,,,,,,,,,,,733003,001,2025-03-17_14h54.29.595,Estimulo_ICE,2024.2.4,59.97782020203209,2025-03-17 14h54.35.589250 -0300,
Estimulo_1,13,13,0,3.09999999999999,-3.09999999999999,3.09999999999999,-3.09999999999999,2.2,-2.2,-2.2,2.2,0,4,4,0,0,13,13,13,,,,,,,,,,,,,,,,,,,,,,,,,,,,,,,,,,,,,,,,,,,,,91.4961303,,,,91.4821995000002,91.4961303,91.4961303,91.4961303,91.78173680000009,91.78197150000005,91.79609750000009,91.79609750000009,91.79609750000009,92.08152289999998,,,,,,,,,,,,,,,,,,,,,,,,,,733003,001,2025-03-17_14h54.29.595,Estimulo_ICE,2024.2.4,59.97782020203209,2025-03-17 14h54.35.589250 -0300,
Estimulo_1,14,14,0,2.99999999999999,-2.99999999999999,2.99999999999999,-2.99999999999999,2.2,-2.2,-2.2,2.2,0,4,4,0,0,14,14,14,,,,,,,,,,,,,,,,,,,,,,,,,,,,,,,,,,,,,,,,,,,,,92.09633960000019,,,,92.08190130000003,92.09633960000019,92.09633960000019,92.09633960000019,92.38173370000004,92.38196800000014,92.39614280000023,92.39614280000023,92.39614280000023,92.68167930000027,,,,,,,,,,,,,,,,,,,,,,,,,,733003,001,2025-03-17_14h54.29.595,Estimulo_ICE,2024.2.4,59.97782020203209,2025-03-17 14h54.35.589250 -0300,
Estimulo_1,15,15,0,2.89999999999999,-2.89999999999999,2.89999999999999,-2.89999999999999,2.2,-2.2,-2.2,2.2,0,4,4,0,0,15,15,15,,,,,,,,,,,,,,,,,,,,,,,,,,,,,,,,,,,,,,,,,,,,,92.69616650000034,,,,92.6820332000002,92.69616650000034,92.69616650000034,92.69616650000034,92.98156160000008,92.98178120000011,92.99616340000011,92.99616340000011,92.99616340000011,93.28170040000032,,,,,,,,,,,,,,,,,,,,,,,,,,733003,001,2025-03-17_14h54.29.595,Estimulo_ICE,2024.2.4,59.97782020203209,2025-03-17 14h54.35.589250 -0300,
Estimulo_1,16,16,0,2.79999999999999,-2.79999999999999,2.79999999999999,-2.79999999999999,2.2,-2.2,-2.2,2.2,0,4,4,0,0,16,16,16,,,,,,,,,,,,,,,,,,,,,,,,,,,,,,,,,,,,,,,,,,,,,93.29614070000025,,,,93.28208170000016,93.29614070000025,93.29614070000025,93.29614070000025,93.58170140000038,93.5819378000001,93.59609470000032,93.59609470000032,93.59609470000032,93.88159700000006,,,,,,,,,,,,,,,,,,,,,,,,,,733003,001,2025-03-17_14h54.29.595,Estimulo_ICE,2024.2.4,59.97782020203209,2025-03-17 14h54.35.589250 -0300,
Estimulo_1,17,17,0,2.69999999999999,-2.69999999999999,2.69999999999999,-2.69999999999999,2.2,-2.2,-2.2,2.2,0,4,4,0,0,17,17,17,,,,,,,,,,,,,,,,,,,,,,,,,,,,,,,,,,,,,,,,,,,,,93.8962305,,,,93.8819526000002,93.8962305,93.8962305,93.8962305,94.18179850000024,94.18205760000001,94.19617940000035,94.19617940000035,94.19617940000035,94.48173550000001,,,,,,,,,,,,,,,,,,,,,,,,,,733003,001,2025-03-17_14h54.29.595,Estimulo_ICE,2024.2.4,59.97782020203209,2025-03-17 14h54.35.589250 -0300,
Estimulo_1,18,18,0,2.59999999999999,-2.59999999999999,2.59999999999999,-2.59999999999999,2.2,-2.2,-2.2,2.2,0,4,4,0,0,18,18,18,,,,,,,,,,,,,,,,,,,,,,,,,,,,,,,,,,,,,,,,,,,,,94.49609450000025,,,,94.48211160000028,94.49609450000025,94.49609450000025,94.49609450000025,94.78174750000017,94.7819811000004,94.79606580000018,94.79606580000018,94.79606580000018,95.08161319999999,,,,,,,,,,,,,,,,,,,,,,,,,,733003,001,2025-03-17_14h54.29.595,Estimulo_ICE,2024.2.4,59.97782020203209,2025-03-17 14h54.35.589250 -0300,
Estimulo_1,19,19,0,2.49999999999999,-2.49999999999999,2.49999999999999,-2.49999999999999,2.2,-2.2,-2.2,2.2,0,4,4,0,0,19,19,19,,,,,,,,,,,,,,,,,,,,,,,,,,,,,,,,,,,,,,,,,,,,,95.09612140000036,,,,95.0819803000004,95.09612140000036,95.09612140000036,95.09612140000036,95.38167160000012,95.38190330000043,95.39611130000003,95.39611130000003,95.39611130000003,95.68597790000013,,,,,,,,,,,,,,,,,,,,,,,,,,733003,001,2025-03-17_14h54.29.595,Estimulo_ICE,2024.2.4,59.97782020203209,2025-03-17 14h54.35.589250 -0300,
Estimulo_1,20,20,0,2.39999999999999,-2.39999999999999,2.39999999999999,-2.39999999999999,2.2,-2.2,-2.2,2.2,0,4,4,0,0,20,20,20,,,,,,,,,,,,,,,,,,,,,,,,,,,,,,,,,,,,,,,,,,,,,95.69753290000017,,,,95.6867857000002,95.69753290000017,95.69753290000017,95.69753290000017,95.98423200000025,95.98518720000038,95.9994042000003,95.9994042000003,95.9994042000003,96.28615990000026,,,,,,,,,,,,,,,,,,,,,,,,,,733003,001,2025-03-17_14h54.29.595,Estimulo_ICE,2024.2.4,59.97782020203209,2025-03-17 14h54.35.589250 -0300,
Estimulo_1,21,21,0,2.29999999999999,-2.29999999999999,2.29999999999999,-2.29999999999999,2.2,-2.2,-2.2,2.2,0,4,4,0,0,21,21,21,,,,,,,,,,,,,,,,,,,,,,,,,,,,,,,,,,,,,,,,,,,,,96.29749660000016,,,,96.28697370000009,96.29749660000016,96.29749660000016,96.29749660000016,96.58612830000038,96.58666770000036,96.59751510000024,96.59751510000024,96.59751510000024,96.88367760000028,,,,,,,,,,,,,,,,,,,,,,,,,,733003,001,2025-03-17_14h54.29.595,Estimulo_ICE,2024.2.4,59.97782020203209,2025-03-17 14h54.35.589250 -0300,
Estimulo_1,22,22,0,2.19999999999999,-2.19999999999999,2.19999999999999,-2.19999999999999,2.2,-2.2,-2.2,2.2,0,4,4,0,0,22,22,22,,,,,,,,,,,,,,,,,,,,,,,,,,,,,,,,,,,,,,,,,,,,,96.89659840000013,,,,96.88423680000005,96.89659840000013,96.89659840000013,96.89659840000013,97.18353640000032,97.18391390000033,97.1968536000004,97.1968536000004,97.1968536000004,97.4817551000001,,,,,,,,,,,,,,,,,,,,,,,,,,733003,001,2025-03-17_14h54.29.595,Estimulo_ICE,2024.2.4,59.97782020203209,2025-03-17 14h54.35.589250 -0300,
Estimulo_1,23,23,0,2.09999999999999,-2.09999999999999,2.09999999999999,-2.09999999999999,2.2,-2.2,-2.2,2.2,0,4,4,0,0,23,23,23,,,,,,,,,,,,,,,,,,,,,,,,,,,,,,,,,,,,,,,,,,,,,97.49624840000024,,,,97.48213720000012,97.49624840000024,97.49624840000024,97.49624840000024,97.78161020000016,97.78185410000015,97.7961406000004,97.7961406000004,97.7961406000004,98.0817978,,,,,,,,,,,,,,,,,,,,,,,,,,733003,001,2025-03-17_14h54.29.595,Estimulo_ICE,2024.2.4,59.97782020203209,2025-03-17 14h54.35.589250 -0300,
Estimulo_1,24,24,0,1.99999999999999,-1.99999999999999,1.99999999999999,-1.99999999999999,2.2,-2.2,-2.2,2.2,0,4,4,0,0,24,24,24,,,,,,,,,,,,,,,,,,,,,,,,,,,,,,,,,,,,,,,,,,,,,98.09614950000014,,,,98.08216340000035,98.09614950000014,98.09614950000014,98.09614950000014,98.38175130000036,98.38199080000004,98.39592350000021,98.39592350000021,98.39592350000021,98.68177090000017,,,,,,,,,,,,,,,,,,,,,,,,,,733003,001,2025-03-17_14h54.29.595,Estimulo_ICE,2024.2.4,59.97782020203209,2025-03-17 14h54.35.589250 -0300,
Estimulo_1,25,25,0,1.89999999999999,-1.89999999999999,1.89999999999999,-1.89999999999999,2.2,-2.2,-2.2,2.2,0,4,4,0,0,25,25,25,,,,,,,,,,,,,,,,,,,,,,,,,,,,,,,,,,,,,,,,,,,,,98.6962910000002,,,,98.68215660000033,98.6962910000002,98.6962910000002,98.6962910000002,98.9818320000004,98.9820966000002,98.99610670000038,98.99610670000038,98.99610670000038,99.28171090000023,,,,,,,,,,,,,,,,,,,,,,,,,,733003,001,2025-03-17_14h54.29.595,Estimulo_ICE,2024.2.4,59.97782020203209,2025-03-17 14h54.35.589250 -0300,
Estimulo_1,26,26,0,1.79999999999999,-1.79999999999999,1.79999999999999,-1.79999999999999,2.2,-2.2,-2.2,2.2,0,4,4,0,0,26,26,26,,,,,,,,,,,,,,,,,,,,,,,,,,,,,,,,,,,,,,,,,,,,,99.29599900000039,,,,99.28207360000033,99.29599900000039,99.29599900000039,99.29599900000039,99.5817548,99.58199390000027,99.59595450000006,99.59595450000006,99.59595450000006,99.88177430000042,,,,,,,,,,,,,,,,,,,,,,,,,,733003,001,2025-03-17_14h54.29.595,Estimulo_ICE,2024.2.4,59.97782020203209,2025-03-17 14h54.35.589250 -0300,
Estimulo_1,27,27,0,1.69999999999999,-1.69999999999999,1.69999999999999,-1.69999999999999,2.2,-2.2,-2.2,2.2,0,4,4,0,0,27,27,27,,,,,,,,,,,,,,,,,,,,,,,,,,,,,,,,,,,,,,,,,,,,,99.8962047,,,,99.88215960000025,99.8962047,99.8962047,99.8962047,100.18561620000037,100.18613160000041,100.19727160000002,100.19727160000002,100.19727160000002,100.48540130000038,,,,,,,,,,,,,,,,,,,,,,,,,,733003,001,2025-03-17_14h54.29.595,Estimulo_ICE,2024.2.4,59.97782020203209,2025-03-17 14h54.35.589250 -0300,
Estimulo_1,28,28,0,1.59999999999999,-1.59999999999999,1.59999999999999,-1.59999999999999,2.2,-2.2,-2.2,2.2,0,4,4,0,0,28,28,28,,,,,,,,,,,,,,,,,,,,,,,,,,,,,,,,,,,,,,,,,,,,,100.49717360000022,,,,100.48616070000026,100.49717360000022,100.49717360000022,100.49717360000022,100.78557920000003,100.78608170000007,100.7974776000001,100.7974776000001,100.7974776000001,101.08169290000023,,,,,,,,,,,,,,,,,,,,,,,,,,733003,001,2025-03-17_14h54.29.595,Estimulo_ICE,2024.2.4,59.97782020203209,2025-03-17 14h54.35.589250 -0300,
Estimulo_1,29,29,0,1.49999999999999,-1.49999999999998,1.49999999999999,-1.49999999999998,2.2,-2.2,-2.2,2.2,0,4,4,0,0,29,29,29,,,,,,,,,,,,,,,,,,,,,,,,,,,,,,,,,,,,,,,,,,,,,101.09623290000036,,,,101.0820764,101.09623290000036,101.09623290000036,101.09623290000036,101.38169720000042,101.38193120000005,101.39592520000042,101.39592520000042,101.39592520000042,101.68147610000005,,,,,,,,,,,,,,,,,,,,,,,,,,733003,001,2025-03-17_14h54.29.595,Estimulo_ICE,2024.2.4,59.97782020203209,2025-03-17 14h54.35.589250 -0300,
Estimulo_1,30,30,0,1.39999999999999,-1.39999999999998,1.39999999999999,-1.39999999999998,2.2,-2.2,-2.2,2.2,0,4,4,0,0,30,30,30,,,,,,,,,,,,,,,,,,,,,,,,,,,,,,,,,,,,,,,,,,,,,101.69612920000009,,,,101.68183080000017,101.69612920000009,101.69612920000009,101.69612920000009,101.98149039999998,101.98170970000001,101.9959356000004,101.9959356000004,101.9959356000004,102.28166750000037,,,,,,,,,,,,,,,,,,,,,,,,,,733003,001,2025-03-17_14h54.29.595,Estimulo_ICE,2024.2.4,59.97782020203209,2025-03-17 14h54.35.589250 -0300,
Estimulo_1,31,31,0,1.29999999999999,-1.29999999999998,1.29999999999999,-1.29999999999998,2.2,-2.2,-2.2,2.2,0,4,4,0,0,31,31,31,,,,,,,,,,,,,,,,,,,,,,,,,,,,,,,,,,,,,,,,,,,,,102.2961292,,,,102.28203960000019,102.2961292,102.2961292,102.2961292,102.58165910000025,102.58191540000007,102.59613300000001,102.59613300000001,102.59613300000001,102.88164160000042,,,,,,,,,,,,,,,,,,,,,,,,,,733003,001,2025-03-17_14h54.29.595,Estimulo_ICE,2024.2.4,59.97782020203209,2025-03-17 14h54.35.589250 -0300,
Estimulo_1,32,32,0,1.19999999999999,-1.19999999999998,1.19999999999999,-1.19999999999998,2.2,-2.2,-2.2,2.2,0,4,4,0,0,32,32,32,,,,,,,,,,,,,,,,,,,,,,,,,,,,,,,,,,,,,,,,,,,,,102.89584410000043,,,,102.88203710000016,102.89584410000043,102.89584410000043,102.89584410000043,103.18153240000038,103.18176970000013,103.19611220000024,103.19611220000024,103.19611220000024,103.48193570000012,,,,,,,,,,,,,,,,,,,,,,,,,,733003,001,2025-03-17_14h54.29.595,Estimulo_ICE,2024.2.4,59.97782020203209,2025-03-17 14h54.35.589250 -0300,
Estimulo_1,33,33,0,1.09999999999999,-1.09999999999998,1.09999999999999,-1.09999999999998,2.2,-2.2,-2.2,2.2,0,4,4,0,0,33,33,33,,,,,,,,,,,,,,,,,,,,,,,,,,,,,,,,,,,,,,,,,,,,,103.49612730000035,,,,103.48228840000002,103.49612730000035,103.49612730000035,103.49612730000035,103.781473,103.78171040000007,103.7961137000002,103.7961137000002,103.7961137000002,104.08165580000014,,,,,,,,,,,,,,,,,,,,,,,,,,733003,001,2025-03-17_14h54.29.595,Estimulo_ICE,2024.2.4,59.97782020203209,2025-03-17 14h54.35.589250 -0300,
Estimulo_1,0,0,0,4.4,-4.4,4.4,-4.4,2.2,-2.2,-2.2,2.2,0,4,4,0,,,,,,,,,,,,,,,,,0,0,0,0,,,,,,,,,,,,,,,,,,,,,,,,,,,,,104.14570200000026,,,,,,,,,,,,,,,,,,,,,,,104.13182710000001,104.14570200000026,104.14570200000026,104.14570200000026,104.37048679999998,104.37111490000007,104.38104770000018,104.38104770000018,104.38104770000018,104.66712460000008,,,,,,,733003,001,2025-03-17_14h54.29.595,Estimulo_ICE,2024.2.4,59.97782020203209,2025-03-17 14h54.35.589250 -0300,
Estimulo_1,1,1,0,4.3,-4.3,4.3,-4.3,2.2,-2.2,-2.2,2.2,0,4,4,0,,,,,,,,,,,,,,,,,0,1,1,1,,,,,,,,,,,,,,,,,,,,,,,,,,,,,104.68002160000015,,,,,,,,,,,,,,,,,,,,,,,104.66771480000034,104.68002160000015,104.68002160000015,104.68002160000015,104.96671350000042,104.9671515,104.97932190000029,104.97932190000029,104.97932190000029,105.26527650000025,104.97932190000029,104.97932190000029,104.97932190000029,105.27951920000032,105.27951920000032,105.27951920000032,733003,001,2025-03-17_14h54.29.595,Estimulo_ICE,2024.2.4,59.97782020203209,2025-03-17 14h54.35.589250 -0300,
Estimulo_1,2,2,0,4.2,-4.2,4.2,-4.2,2.2,-2.2,-2.2,2.2,0,4,4,0,,,,,,,,,,,,,,,,,0,2,2,2,,,,,,,,,,,,,,,,,,,,,,,,,,,,,105.27951920000032,,,,,,,,,,,,,,,,,,,,,,,105.26564660000031,105.27951920000032,105.27951920000032,105.27951920000032,105.56530470000007,105.56555700000035,105.57923310000024,105.57923310000024,105.57923310000024,105.8653405,105.57923310000024,105.57923310000024,105.57923310000024,105.87940660000004,105.87940660000004,105.87940660000004,733003,001,2025-03-17_14h54.29.595,Estimulo_ICE,2024.2.4,59.97782020203209,2025-03-17 14h54.35.589250 -0300,
Estimulo_1,3,3,0,4.1,-4.1,4.1,-4.1,2.2,-2.2,-2.2,2.2,0,4,4,0,,,,,,,,,,,,,,,,,0,3,3,3,,,,,,,,,,,,,,,,,,,,,,,,,,,,,105.87940660000004,,,,,,,,,,,,,,,,,,,,,,,105.86571030000005,105.87940660000004,105.87940660000004,105.87940660000004,106.16537020000032,106.1656253000001,106.17939350000006,106.17939350000006,106.17939350000006,106.4654429000002,106.17939350000006,106.17939350000006,106.17939350000006,106.4794124,106.4794124,106.4794124,733003,001,2025-03-17_14h54.29.595,Estimulo_ICE,2024.2.4,59.97782020203209,2025-03-17 14h54.35.589250 -0300,
Estimulo_1,4,4,0,4,-4,4,-4,2.2,-2.2,-2.2,2.2,0,4,4,0,,,,,,,,,,,,,,,,,0,4,4,4,,,,,,,,,,,,,,,,,,,,,,,,,,,,,106.4794124,,,,,,,,,,,,,,,,,,,,,,,106.4658201000002,106.4794124,106.4794124,106.4794124,106.76530130000037,106.76555100000041,106.77936490000002,106.77936490000002,106.77936490000002,107.06536500000038,106.77936490000002,106.77936490000002,106.77936490000002,107.0793764,107.0793764,107.0793764,733003,001,2025-03-17_14h54.29.595,Estimulo_ICE,2024.2.4,59.97782020203209,2025-03-17 14h54.35.589250 -0300,
Estimulo_1,5,5,0,3.9,-3.9,3.9,-3.9,2.2,-2.2,-2.2,2.2,0,4,4,0,,,,,,,,,,,,,,,,,0,5,5,5,,,,,,,,,,,,,,,,,,,,,,,,,,,,,107.0793764,,,,,,,,,,,,,,,,,,,,,,,107.06573670000034,107.0793764,107.0793764,107.0793764,107.3653317000003,107.36557370000037,107.37947110000005,107.37947110000005,107.37947110000005,107.66528060000019,107.37947110000005,107.37947110000005,107.37947110000005,107.67946230000007,107.67946230000007,107.67946230000007,733003,001,2025-03-17_14h54.29.595,Estimulo_ICE,2024.2.4,59.97782020203209,2025-03-17 14h54.35.589250 -0300,
Estimulo_1,6,6,0,3.8,-3.8,3.8,-3.8,2.2,-2.2,-2.2,2.2,0,4,4,0,,,,,,,,,,,,,,,,,0,6,6,6,,,,,,,,,,,,,,,,,,,,,,,,,,,,,107.67946230000007,,,,,,,,,,,,,,,,,,,,,,,107.6656495000002,107.67946230000007,107.67946230000007,107.67946230000007,107.96557930000017,107.96586270000034,107.97915160000002,107.97915160000002,107.97915160000002,108.26512900000034,107.97915160000002,107.97915160000002,107.97915160000002,108.27935880000041,108.27935880000041,108.27935880000041,733003,001,2025-03-17_14h54.29.595,Estimulo_ICE,2024.2.4,59.97782020203209,2025-03-17 14h54.35.589250 -0300,
Estimulo_1,7,7,0,3.7,-3.7,3.7,-3.7,2.2,-2.2,-2.2,2.2,0,4,4,0,,,,,,,,,,,,,,,,,0,7,7,7,,,,,,,,,,,,,,,,,,,,,,,,,,,,,108.27935880000041,,,,,,,,,,,,,,,,,,,,,,,108.26549780000005,108.27935880000041,108.27935880000041,108.27935880000041,108.5653682000002,108.5656170000002,108.57915930000036,108.57915930000036,108.57915930000036,108.86523500000021,108.57915930000036,108.57915930000036,108.57915930000036,108.87940200000003,108.87940200000003,108.87940200000003,733003,001,2025-03-17_14h54.29.595,Estimulo_ICE,2024.2.4,59.97782020203209,2025-03-17 14h54.35.589250 -0300,
Estimulo_1,8,8,0,3.6,-3.6,3.6,-3.6,2.2,-2.2,-2.2,2.2,0,4,4,0,,,,,,,,,,,,,,,,,0,8,8,8,,,,,,,,,,,,,,,,,,,,,,,,,,,,,108.87940200000003,,,,,,,,,,,,,,,,,,,,,,,108.86560540000028,108.87940200000003,108.87940200000003,108.87940200000003,109.16989250000006,109.17047680000042,109.18091890000005,109.18091890000005,109.18091890000005,109.47133490000033,109.18091890000005,109.18091890000005,109.18091890000005,109.4808809000001,109.4808809000001,109.4808809000001,733003,001,2025-03-17_14h54.29.595,Estimulo_ICE,2024.2.4,59.97782020203209,2025-03-17 14h54.35.589250 -0300,
Estimulo_1,9,9,0,3.5,-3.5,3.5,-3.5,2.2,-2.2,-2.2,2.2,0,4,4,0,,,,,,,,,,,,,,,,,0,9,9,9,,,,,,,,,,,,,,,,,,,,,,,,,,,,,109.4808809000001,,,,,,,,,,,,,,,,,,,,,,,109.47224110000025,109.4808809000001,109.4808809000001,109.4808809000001,109.7652608000003,109.76551470000004,109.77919060000022,109.77919060000022,109.77919060000022,110.0653083000002,,,,110.07955090000041,110.07955090000041,110.07955090000041,733003,001,2025-03-17_14h54.29.595,Estimulo_ICE,2024.2.4,59.97782020203209,2025-03-17 14h54.35.589250 -0300,
Estimulo_1,10,10,0,3.39999999999999,-3.39999999999999,3.39999999999999,-3.39999999999999,2.2,-2.2,-2.2,2.2,0,4,4,0,,,,,,,,,,,,,,,,,0,10,10,10,,,,,,,,,,,,,,,,,,,,,,,,,,,,,110.07955090000041,,,,,,,,,,,,,,,,,,,,,,,110.06567800000039,110.07955090000041,110.07955090000041,110.07955090000041,110.36533310000004,110.36558360000026,110.37939010000036,110.37939010000036,110.37939010000036,110.66523940000025,110.37939010000036,110.37939010000036,110.37939010000036,110.67931970000018,110.67931970000018,110.67931970000018,733003,001,2025-03-17_14h54.29.595,Estimulo_ICE,2024.2.4,59.97782020203209,2025-03-17 14h54.35.589250 -0300,
Estimulo_1,11,11,0,3.29999999999999,-3.29999999999999,3.29999999999999,-3.29999999999999,2.2,-2.2,-2.2,2.2,0,4,4,0,,,,,,,,,,,,,,,,,0,11,11,11,,,,,,,,,,,,,,,,,,,,,,,,,,,,,110.67931970000018,,,,,,,,,,,,,,,,,,,,,,,110.66561190000039,110.67931970000018,110.67931970000018,110.67931970000018,110.96513180000011,110.9654002000002,110.97932639999999,110.97932639999999,110.97932639999999,111.26546300000018,110.97932639999999,110.97932639999999,110.97932639999999,111.27928320000001,111.27928320000001,111.27928320000001,733003,001,2025-03-17_14h54.29.595,Estimulo_ICE,2024.2.4,59.97782020203209,2025-03-17 14h54.35.589250 -0300,
Estimulo_1,12,12,0,3.19999999999999,-3.19999999999999,3.19999999999999,-3.19999999999999,2.2,-2.2,-2.2,2.2,0,4,4,0,,,,,,,,,,,,,,,,,0,12,12,12,,,,,,,,,,,,,,,,,,,,,,,,,,,,,111.27928320000001,,,,,,,,,,,,,,,,,,,,,,,111.26583280000023,111.27928320000001,111.27928320000001,111.27928320000001,111.5652586000001,111.5655071000001,111.57938580000018,111.57938580000018,111.57938580000018,111.86534840000013,111.57938580000018,111.57938580000018,111.57938580000018,111.87928499999998,111.87928499999998,111.87928499999998,733003,001,2025-03-17_14h54.29.595,Estimulo_ICE,2024.2.4,59.97782020203209,2025-03-17 14h54.35.589250 -0300,
Estimulo_1,13,13,0,3.09999999999999,-3.09999999999999,3.09999999999999,-3.09999999999999,2.2,-2.2,-2.2,2.2,0,4,4,0,,,,,,,,,,,,,,,,,0,13,13,13,,,,,,,,,,,,,,,,,,,,,,,,,,,,,111.87928499999998,,,,,,,,,,,,,,,,,,,,,,,111.86572100000012,111.87928499999998,111.87928499999998,111.87928499999998,112.16516710000042,112.1654195000001,112.17933980000043,112.17933980000043,112.17933980000043,112.4652959,112.17933980000043,112.17933980000043,112.17933980000043,112.47975610000003,112.47975610000003,112.47975610000003,733003,001,2025-03-17_14h54.29.595,Estimulo_ICE,2024.2.4,59.97782020203209,2025-03-17 14h54.35.589250 -0300,
Estimulo_1,14,14,0,2.99999999999999,-2.99999999999999,2.99999999999999,-2.99999999999999,2.2,-2.2,-2.2,2.2,0,4,4,0,,,,,,,,,,,,,,,,,0,14,14,14,,,,,,,,,,,,,,,,,,,,,,,,,,,,,112.47975610000003,,,,,,,,,,,,,,,,,,,,,,,112.46566660000008,112.47975610000003,112.47975610000003,112.47975610000003,112.76512300000013,112.76537390000021,112.7793399000002,112.7793399000002,112.7793399000002,113.06525370000008,112.7793399000002,112.7793399000002,112.7793399000002,113.07930670000042,113.07930670000042,113.07930670000042,733003,001,2025-03-17_14h54.29.595,Estimulo_ICE,2024.2.4,59.97782020203209,2025-03-17 14h54.35.589250 -0300,
Estimulo_1,15,15,0,2.89999999999999,-2.89999999999999,2.89999999999999,-2.89999999999999,2.2,-2.2,-2.2,2.2,0,4,4,0,,,,,,,,,,,,,,,,,0,15,15,15,,,,,,,,,,,,,,,,,,,,,,,,,,,,,113.07930670000042,,,,,,,,,,,,,,,,,,,,,,,113.06562950000034,113.07930670000042,113.07930670000042,113.07930670000042,113.36515280000003,113.36540300000024,113.37929900000017,113.37929900000017,113.37929900000017,113.66519180000023,113.37929900000017,113.37929900000017,113.37929900000017,113.67934980000018,113.67934980000018,113.67934980000018,733003,001,2025-03-17_14h54.29.595,Estimulo_ICE,2024.2.4,59.97782020203209,2025-03-17 14h54.35.589250 -0300,
