LoopName,thisN,thisTrialN,thisRepN,px1,px2,px3,px4,py1,py2,py3,py4,MainLoop.thisRepN,MainLoop.thisTrialN,MainLoop.thisN,MainLoop.thisIndex,loop_1.thisRepN,loop_1.thisTrialN,loop_1.thisN,loop_1.thisIndex,loop_2.thisRepN,loop_2.thisTrialN,loop_2.thisN,loop_2.thisIndex,loop_3.thisRepN,loop_3.thisTrialN,loop_3.thisN,loop_3.thisIndex,loop_4.thisRepN,loop_4.thisTrialN,loop_4.thisN,loop_4.thisIndex,loop_5.thisRepN,loop_5.thisTrialN,loop_5.thisN,loop_5.thisIndex,loop_6.thisRepN,loop_6.thisTrialN,loop_6.thisN,loop_6.thisIndex,loop_7.thisRepN,loop_7.thisTrialN,loop_7.thisN,loop_7.thisIndex,loop_8.thisRepN,loop_8.thisTrialN,loop_8.thisN,loop_8.thisIndex,loop_9.thisRepN,loop_9.thisTrialN,loop_9.thisN,loop_9.thisIndex,loop_10.thisRepN,loop_10.thisTrialN,loop_10.thisN,loop_10.thisIndex,loop_11.thisRepN,loop_11.thisTrialN,loop_11.thisN,loop_11.thisIndex,loop_12.thisRepN,loop_12.thisTrialN,loop_12.thisN,loop_12.thisIndex,thisRow.t,notes,codigo.started,codigo.stopped,trial.started,image.started,image_2.started,polygon.started,trial.stopped,trial_2.started,image_3.started,image_4.started,polygon_2.started,trial_2.stopped,_intertrial_interval_.started,polygon_5.started,_intertrial_interval_.stopped,trial_3.started,image_5.started,image_6.started,polygon_3.started,trial_3.stopped,trial_4.started,image_7.started,image_8.started,polygon_4.started,image_7.stopped,image_8.stopped,polygon_4.stopped,trial_4.stopped,image_5.stopped,image_6.stopped,polygon_3.stopped,trial_5.started,image_9.started,polygon_6.started,image_10.started,trial_5.stopped,trial_6.started,image_11.started,image_12.started,polygon_7.started,trial_6.stopped,image_9.stopped,polygon_6.stopped,image_10.stopped,image_11.stopped,image_12.stopped,polygon_7.stopped,image.stopped,image_2.stopped,polygon.stopped,image_3.stopped,image_4.stopped,polygon_2.stopped,participant,session,date,expName,psychopyVersion,frameRate,expStart,
Estimulo_3,0,0,0,2.2,-2.2,-2.2,2.2,4.4,-4.4,4.4,-4.4,0,0,0,2,,,,,,,,,0,0,0,0,,,,,,,,,,,,,,,,,,,,,,,,,,,,,,,,,,,,,0.12123079999992115,,0.028643099999953847,0.028935999999930573,0.09360209999999825,0.12123079999992115,0.12123079999992115,0.12123079999992115,0.3402942999998686,0.34051270000009026,0.3547857999999451,0.3547857999999451,0.3547857999999451,0.6402396999999382,,,,,,,,,,,,,,,,,,,,,,,,,,,,,,,,,,,,,,,,,,749084,001,2025-03-20_16h34.18.605,Estimulo_ICE,2024.2.4,60.211873540652185,2025-03-20 16h34.27.040791 -0300,
Estimulo_3,1,1,0,2.2,-2.2,-2.2,2.2,4.3,-4.3,4.3,-4.3,0,0,0,2,,,,,,,,,0,1,1,1,,,,,,,,,,,,,,,,,,,,,,,,,,,,,,,,,,,,,0.6546063999999205,,,,0.6405841000000692,0.6546063999999205,0.6546063999999205,0.6546063999999205,0.94017719999988,0.9404133000000456,0.9547018999999182,0.9547018999999182,0.9547018999999182,1.24032289999991,,,,,,,,,,,,,,,,,,,,,,,,,,,,,,,,,,,,,,,,,,749084,001,2025-03-20_16h34.18.605,Estimulo_ICE,2024.2.4,60.211873540652185,2025-03-20 16h34.27.040791 -0300,
Estimulo_3,2,2,0,2.2,-2.2,-2.2,2.2,4.2,-4.2,4.2,-4.2,0,0,0,2,,,,,,,,,0,2,2,2,,,,,,,,,,,,,,,,,,,,,,,,,,,,,,,,,,,,,1.2548709000000144,,,,1.240669399999888,1.2548709000000144,1.2548709000000144,1.2548709000000144,1.5403111000000536,1.5405421999998907,1.5545385000000351,1.5545385000000351,1.5545385000000351,1.8403069999999389,,,,,,,,,,,,,,,,,,,,,,,,,,,,,,,,,,,,,,,,,,749084,001,2025-03-20_16h34.18.605,Estimulo_ICE,2024.2.4,60.211873540652185,2025-03-20 16h34.27.040791 -0300,
Estimulo_3,3,3,0,2.2,-2.2,-2.2,2.2,4.1,-4.1,4.1,-4.1,0,0,0,2,,,,,,,,,0,3,3,3,,,,,,,,,,,,,,,,,,,,,,,,,,,,,,,,,,,,,1.854790899999898,,,,1.840648099999953,1.854790899999898,1.854790899999898,1.854790899999898,2.1403528999999253,2.140584600000011,2.154664700000012,2.154664700000012,2.154664700000012,2.443213499999956,,,,,,,,,,,,,,,,,,,,,,,,,,,,,,,,,,,,,,,,,,749084,001,2025-03-20_16h34.18.605,Estimulo_ICE,2024.2.4,60.211873540652185,2025-03-20 16h34.27.040791 -0300,
Estimulo_3,4,4,0,2.2,-2.2,-2.2,2.2,4,-4,4,-4,0,0,0,2,,,,,,,,,0,4,4,4,,,,,,,,,,,,,,,,,,,,,,,,,,,,,,,,,,,,,2.4555178000000524,,,,2.4438810999999987,2.4555178000000524,2.4555178000000524,2.4555178000000524,2.7410818000000745,2.7413753999999244,2.754887300000064,2.754887300000064,2.754887300000064,3.0410779999999704,,,,,,,,,,,,,,,,,,,,,,,,,,,,,,,,,,,,,,,,,,749084,001,2025-03-20_16h34.18.605,Estimulo_ICE,2024.2.4,60.211873540652185,2025-03-20 16h34.27.040791 -0300,
Estimulo_3,5,5,0,2.2,-2.2,-2.2,2.2,3.9,-3.9,3.9,-3.9,0,0,0,2,,,,,,,,,0,5,5,5,,,,,,,,,,,,,,,,,,,,,,,,,,,,,,,,,,,,,3.054779499999995,,,,3.0415124999999534,3.054779499999995,3.054779499999995,3.054779499999995,3.341013700000076,3.3413126999998894,3.3547591999999895,3.3547591999999895,3.3547591999999895,3.641014499999983,,,,,,,,,,,,,,,,,,,,,,,,,,,,,,,,,,,,,,,,,,749084,001,2025-03-20_16h34.18.605,Estimulo_ICE,2024.2.4,60.211873540652185,2025-03-20 16h34.27.040791 -0300,
Estimulo_3,6,6,0,2.2,-2.2,-2.2,2.2,3.8,-3.8,3.8,-3.8,0,0,0,2,,,,,,,,,0,6,6,6,,,,,,,,,,,,,,,,,,,,,,,,,,,,,,,,,,,,,3.6550654000000122,,,,3.641448999999966,3.6550654000000122,3.6550654000000122,3.6550654000000122,3.940801499999907,3.941098699999884,3.9547929000000295,3.9547929000000295,3.9547929000000295,4.240953199999922,,,,,,,,,,,,,,,,,,,,,,,,,,,,,,,,,,,,,,,,,,749084,001,2025-03-20_16h34.18.605,Estimulo_ICE,2024.2.4,60.211873540652185,2025-03-20 16h34.27.040791 -0300,
Estimulo_3,7,7,0,2.2,-2.2,-2.2,2.2,3.7,-3.7,3.7,-3.7,0,0,0,2,,,,,,,,,0,7,7,7,,,,,,,,,,,,,,,,,,,,,,,,,,,,,,,,,,,,,4.254852399999891,,,,4.241392200000064,4.254852399999891,4.254852399999891,4.254852399999891,4.5411194000000705,4.541412399999899,4.554876299999933,4.554876299999933,4.554876299999933,4.841031899999962,,,,,,,,,,,,,,,,,,,,,,,,,,,,,,,,,,,,,,,,,,749084,001,2025-03-20_16h34.18.605,Estimulo_ICE,2024.2.4,60.211873540652185,2025-03-20 16h34.27.040791 -0300,
Estimulo_3,8,8,0,2.2,-2.2,-2.2,2.2,3.6,-3.6,3.6,-3.6,0,0,0,2,,,,,,,,,0,8,8,8,,,,,,,,,,,,,,,,,,,,,,,,,,,,,,,,,,,,,4.854983499999889,,,,4.841471499999898,4.854983499999889,4.854983499999889,4.854983499999889,5.140976500000079,5.141267799999923,5.1547407999998995,5.1547407999998995,5.1547407999998995,5.4409780000000865,,,,,,,,,,,,,,,,,,,,,,,,,,,,,,,,,,,,,,,,,,749084,001,2025-03-20_16h34.18.605,Estimulo_ICE,2024.2.4,60.211873540652185,2025-03-20 16h34.27.040791 -0300,
Estimulo_3,9,9,0,2.2,-2.2,-2.2,2.2,3.5,-3.5,3.5,-3.5,0,0,0,2,,,,,,,,,0,9,9,9,,,,,,,,,,,,,,,,,,,,,,,,,,,,,,,,,,,,,5.454861199999868,,,,5.441413199999943,5.454861199999868,5.454861199999868,5.454861199999868,5.74100959999987,5.741305799999964,5.75480390000007,5.75480390000007,5.75480390000007,6.04096770000001,,,,,,,,,,,,,,,,,,,,,,,,,,,,,,,,,,,,,,,,,,749084,001,2025-03-20_16h34.18.605,Estimulo_ICE,2024.2.4,60.211873540652185,2025-03-20 16h34.27.040791 -0300,
Estimulo_3,10,10,0,2.2,-2.2,-2.2,2.2,3.39999999999999,-3.39999999999999,3.39999999999999,-3.39999999999999,0,0,0,2,,,,,,,,,0,10,10,10,,,,,,,,,,,,,,,,,,,,,,,,,,,,,,,,,,,,,6.054862199999889,,,,6.041402999999946,6.054862199999889,6.054862199999889,6.054862199999889,6.3410458000000745,6.341337399999929,6.354831999999988,6.354831999999988,6.354831999999988,6.640953300000092,,,,,,,,,,,,,,,,,,,,,,,,,,,,,,,,,,,,,,,,,,749084,001,2025-03-20_16h34.18.605,Estimulo_ICE,2024.2.4,60.211873540652185,2025-03-20 16h34.27.040791 -0300,
Estimulo_3,11,11,0,2.2,-2.2,-2.2,2.2,3.29999999999999,-3.29999999999999,3.29999999999999,-3.29999999999999,0,0,0,2,,,,,,,,,0,11,11,11,,,,,,,,,,,,,,,,,,,,,,,,,,,,,,,,,,,,,6.654771700000083,,,,6.641389599999911,6.654771700000083,6.654771700000083,6.654771700000083,6.940933500000028,6.941224299999931,6.954845900000009,6.954845900000009,6.954845900000009,7.240976199999977,,,,,,,,,,,,,,,,,,,,,,,,,,,,,,,,,,,,,,,,,,749084,001,2025-03-20_16h34.18.605,Estimulo_ICE,2024.2.4,60.211873540652185,2025-03-20 16h34.27.040791 -0300,
Estimulo_3,12,12,0,2.2,-2.2,-2.2,2.2,3.19999999999999,-3.19999999999999,3.19999999999999,-3.19999999999999,0,0,0,2,,,,,,,,,0,12,12,12,,,,,,,,,,,,,,,,,,,,,,,,,,,,,,,,,,,,,7.254946300000029,,,,7.241430399999899,7.254946300000029,7.254946300000029,7.254946300000029,7.540950899999871,7.541238699999894,7.60401150000007,7.60401150000007,7.60401150000007,7.840303499999891,,,,,,,,,,,,,,,,,,,,,,,,,,,,,,,,,,,,,,,,,,749084,001,2025-03-20_16h34.18.605,Estimulo_ICE,2024.2.4,60.211873540652185,2025-03-20 16h34.27.040791 -0300,
Estimulo_3,13,13,0,2.2,-2.2,-2.2,2.2,3.09999999999999,-3.09999999999999,3.09999999999999,-3.09999999999999,0,0,0,2,,,,,,,,,0,13,13,13,,,,,,,,,,,,,,,,,,,,,,,,,,,,,,,,,,,,,7.854546600000049,,,,7.840649700000085,7.854546600000049,7.854546600000049,7.854546600000049,8.145446900000024,8.146058900000071,8.155062300000054,8.155062300000054,8.155062300000054,8.440523100000064,,,,,,,,,,,,,,,,,,,,,,,,,,,,,,,,,,,,,,,,,,749084,001,2025-03-20_16h34.18.605,Estimulo_ICE,2024.2.4,60.211873540652185,2025-03-20 16h34.27.040791 -0300,
Estimulo_3,14,14,0,2.2,-2.2,-2.2,2.2,2.99999999999999,-2.99999999999999,2.99999999999999,-2.99999999999999,0,0,0,2,,,,,,,,,0,14,14,14,,,,,,,,,,,,,,,,,,,,,,,,,,,,,,,,,,,,,8.454700600000024,,,,8.440897799999902,8.454700600000024,8.454700600000024,8.454700600000024,8.74032699999998,8.740575600000057,8.75477920000003,8.75477920000003,8.75477920000003,9.040482200000042,,,,,,,,,,,,,,,,,,,,,,,,,,,,,,,,,,,,,,,,,,749084,001,2025-03-20_16h34.18.605,Estimulo_ICE,2024.2.4,60.211873540652185,2025-03-20 16h34.27.040791 -0300,
Estimulo_3,15,15,0,2.2,-2.2,-2.2,2.2,2.89999999999999,-2.89999999999999,2.89999999999999,-2.89999999999999,0,0,0,2,,,,,,,,,0,15,15,15,,,,,,,,,,,,,,,,,,,,,,,,,,,,,,,,,,,,,9.05458580000004,,,,9.040854699999954,9.05458580000004,9.05458580000004,9.05458580000004,9.340308199999981,9.340558800000053,9.354717100000016,9.354717100000016,9.354717100000016,9.640422100000023,,,,,,,,,,,,,,,,,,,,,,,,,,,,,,,,,,,,,,,,,,749084,001,2025-03-20_16h34.18.605,Estimulo_ICE,2024.2.4,60.211873540652185,2025-03-20 16h34.27.040791 -0300,
Estimulo_3,16,16,0,2.2,-2.2,-2.2,2.2,2.79999999999999,-2.79999999999999,2.79999999999999,-2.79999999999999,0,0,0,2,,,,,,,,,0,16,16,16,,,,,,,,,,,,,,,,,,,,,,,,,,,,,,,,,,,,,9.654518199999984,,,,9.640794899999946,9.654518199999984,9.654518199999984,9.654518199999984,9.940395899999885,9.940646199999946,9.95478490000005,9.95478490000005,9.95478490000005,10.240272900000036,,,,,,,,,,,,,,,,,,,,,,,,,,,,,,,,,,,,,,,,,,749084,001,2025-03-20_16h34.18.605,Estimulo_ICE,2024.2.4,60.211873540652185,2025-03-20 16h34.27.040791 -0300,
Estimulo_3,17,17,0,2.2,-2.2,-2.2,2.2,2.69999999999999,-2.69999999999999,2.69999999999999,-2.69999999999999,0,0,0,2,,,,,,,,,0,17,17,17,,,,,,,,,,,,,,,,,,,,,,,,,,,,,,,,,,,,,10.254670000000033,,,,10.24064640000006,10.254670000000033,10.254670000000033,10.254670000000033,10.540375499999982,10.540625599999885,10.554712299999892,10.554712299999892,10.554712299999892,10.840275799999972,,,,,,,,,,,,,,,,,,,,,,,,,,,,,,,,,,,,,,,,,,749084,001,2025-03-20_16h34.18.605,Estimulo_ICE,2024.2.4,60.211873540652185,2025-03-20 16h34.27.040791 -0300,
Estimulo_3,18,18,0,2.2,-2.2,-2.2,2.2,2.59999999999999,-2.59999999999999,2.59999999999999,-2.59999999999999,0,0,0,2,,,,,,,,,0,18,18,18,,,,,,,,,,,,,,,,,,,,,,,,,,,,,,,,,,,,,10.854725200000075,,,,10.840646099999958,10.854725200000075,10.854725200000075,10.854725200000075,11.140421900000092,11.140672900000027,11.154489600000034,11.154489600000034,11.154489600000034,11.440492799999902,,,,,,,,,,,,,,,,,,,,,,,,,,,,,,,,,,,,,,,,,,749084,001,2025-03-20_16h34.18.605,Estimulo_ICE,2024.2.4,60.211873540652185,2025-03-20 16h34.27.040791 -0300,
Estimulo_3,19,19,0,2.2,-2.2,-2.2,2.2,2.49999999999999,-2.49999999999999,2.49999999999999,-2.49999999999999,0,0,0,2,,,,,,,,,0,19,19,19,,,,,,,,,,,,,,,,,,,,,,,,,,,,,,,,,,,,,11.454702100000077,,,,11.440864099999999,11.454702100000077,11.454702100000077,11.454702100000077,11.740442199999961,11.74069069999996,11.754747599999973,11.754747599999973,11.754747599999973,12.040404099999932,,,,,,,,,,,,,,,,,,,,,,,,,,,,,,,,,,,,,,,,,,749084,001,2025-03-20_16h34.18.605,Estimulo_ICE,2024.2.4,60.211873540652185,2025-03-20 16h34.27.040791 -0300,
Estimulo_3,20,20,0,2.2,-2.2,-2.2,2.2,2.39999999999999,-2.39999999999999,2.39999999999999,-2.39999999999999,0,0,0,2,,,,,,,,,0,20,20,20,,,,,,,,,,,,,,,,,,,,,,,,,,,,,,,,,,,,,12.054517799999985,,,,12.040774000000056,12.054517799999985,12.054517799999985,12.054517799999985,12.34038899999996,12.340640200000053,12.354593000000023,12.354593000000023,12.354593000000023,12.643958500000053,,,,,,,,,,,,,,,,,,,,,,,,,,,,,,,,,,,,,,,,,,749084,001,2025-03-20_16h34.18.605,Estimulo_ICE,2024.2.4,60.211873540652185,2025-03-20 16h34.27.040791 -0300,
Estimulo_3,21,21,0,2.2,-2.2,-2.2,2.2,2.29999999999999,-2.29999999999999,2.29999999999999,-2.29999999999999,0,0,0,2,,,,,,,,,0,21,21,21,,,,,,,,,,,,,,,,,,,,,,,,,,,,,,,,,,,,,12.655764899999895,,,,12.64470110000002,12.655764899999895,12.655764899999895,12.655764899999895,12.94100380000009,12.941304299999956,12.954719899999873,12.954719899999873,12.954719899999873,13.240980799999988,,,,,,,,,,,,,,,,,,,,,,,,,,,,,,,,,,,,,,,,,,749084,001,2025-03-20_16h34.18.605,Estimulo_ICE,2024.2.4,60.211873540652185,2025-03-20 16h34.27.040791 -0300,
Estimulo_3,22,22,0,2.2,-2.2,-2.2,2.2,2.19999999999999,-2.19999999999999,2.19999999999999,-2.19999999999999,0,0,0,2,,,,,,,,,0,22,22,22,,,,,,,,,,,,,,,,,,,,,,,,,,,,,,,,,,,,,13.254811300000028,,,,13.24143869999989,13.254811300000028,13.254811300000028,13.254811300000028,13.54101270000001,13.541310899999871,13.554673399999956,13.554673399999956,13.554673399999956,13.840254100000038,,,,,,,,,,,,,,,,,,,,,,,,,,,,,,,,,,,,,,,,,,749084,001,2025-03-20_16h34.18.605,Estimulo_ICE,2024.2.4,60.211873540652185,2025-03-20 16h34.27.040791 -0300,
Estimulo_3,23,23,0,2.2,-2.2,-2.2,2.2,2.09999999999999,-2.09999999999999,2.09999999999999,-2.09999999999999,0,0,0,2,,,,,,,,,0,23,23,23,,,,,,,,,,,,,,,,,,,,,,,,,,,,,,,,,,,,,13.85445709999999,,,,13.840600199999926,13.85445709999999,13.85445709999999,13.85445709999999,14.14019129999997,14.140426299999945,14.154387399999905,14.154387399999905,14.154387399999905,14.440010699999902,,,,,,,,,,,,,,,,,,,,,,,,,,,,,,,,,,,,,,,,,,749084,001,2025-03-20_16h34.18.605,Estimulo_ICE,2024.2.4,60.211873540652185,2025-03-20 16h34.27.040791 -0300,
Estimulo_3,24,24,0,2.2,-2.2,-2.2,2.2,1.99999999999999,-1.99999999999999,1.99999999999999,-1.99999999999999,0,0,0,2,,,,,,,,,0,24,24,24,,,,,,,,,,,,,,,,,,,,,,,,,,,,,,,,,,,,,14.45466549999992,,,,14.440334599999915,14.45466549999992,14.45466549999992,14.45466549999992,14.739984099999901,14.740219600000046,14.75451339999995,14.75451339999995,14.75451339999995,15.040149299999939,,,,,,,,,,,,,,,,,,,,,,,,,,,,,,,,,,,,,,,,,,749084,001,2025-03-20_16h34.18.605,Estimulo_ICE,2024.2.4,60.211873540652185,2025-03-20 16h34.27.040791 -0300,
Estimulo_3,25,25,0,2.2,-2.2,-2.2,2.2,1.89999999999999,-1.89999999999999,1.89999999999999,-1.89999999999999,0,0,0,2,,,,,,,,,0,25,25,25,,,,,,,,,,,,,,,,,,,,,,,,,,,,,,,,,,,,,15.054541499999914,,,,15.040494699999954,15.054541499999914,15.054541499999914,15.054541499999914,15.340126300000065,15.340362800000094,15.354597100000092,15.354597100000092,15.354597100000092,15.640200999999934,,,,,,,,,,,,,,,,,,,,,,,,,,,,,,,,,,,,,,,,,,749084,001,2025-03-20_16h34.18.605,Estimulo_ICE,2024.2.4,60.211873540652185,2025-03-20 16h34.27.040791 -0300,
Estimulo_3,26,26,0,2.2,-2.2,-2.2,2.2,1.79999999999999,-1.79999999999999,1.79999999999999,-1.79999999999999,0,0,0,2,,,,,,,,,0,26,26,26,,,,,,,,,,,,,,,,,,,,,,,,,,,,,,,,,,,,,15.65458190000004,,,,15.640551899999991,15.65458190000004,15.65458190000004,15.65458190000004,15.940149900000051,15.940381699999989,15.954512900000054,15.954512900000054,15.954512900000054,16.240104100000053,,,,,,,,,,,,,,,,,,,,,,,,,,,,,,,,,,,,,,,,,,749084,001,2025-03-20_16h34.18.605,Estimulo_ICE,2024.2.4,60.211873540652185,2025-03-20 16h34.27.040791 -0300,
Estimulo_3,27,27,0,2.2,-2.2,-2.2,2.2,1.69999999999999,-1.69999999999999,1.69999999999999,-1.69999999999999,0,0,0,2,,,,,,,,,0,27,27,27,,,,,,,,,,,,,,,,,,,,,,,,,,,,,,,,,,,,,16.254571599999963,,,,16.24044939999999,16.254571599999963,16.254571599999963,16.254571599999963,16.540127100000063,16.540357399999948,16.554492199999913,16.554492199999913,16.554492199999913,16.840122000000065,,,,,,,,,,,,,,,,,,,,,,,,,,,,,,,,,,,,,,,,,,749084,001,2025-03-20_16h34.18.605,Estimulo_ICE,2024.2.4,60.211873540652185,2025-03-20 16h34.27.040791 -0300,
Estimulo_3,28,28,0,2.2,-2.2,-2.2,2.2,1.59999999999999,-1.59999999999999,1.59999999999999,-1.59999999999999,0,0,0,2,,,,,,,,,0,28,28,28,,,,,,,,,,,,,,,,,,,,,,,,,,,,,,,,,,,,,16.85466939999992,,,,16.8404673,16.85466939999992,16.85466939999992,16.85466939999992,17.140124499999956,17.14035480000007,17.154439299999922,17.154439299999922,17.154439299999922,17.4401112999999,,,,,,,,,,,,,,,,,,,,,,,,,,,,,,,,,,,,,,,,,,749084,001,2025-03-20_16h34.18.605,Estimulo_ICE,2024.2.4,60.211873540652185,2025-03-20 16h34.27.040791 -0300,
Estimulo_3,29,29,0,2.2,-2.2,-2.2,2.2,1.49999999999998,-1.49999999999998,1.49999999999998,-1.49999999999998,0,0,0,2,,,,,,,,,0,29,29,29,,,,,,,,,,,,,,,,,,,,,,,,,,,,,,,,,,,,,17.454594300000053,,,,17.440458099999887,17.454594300000053,17.454594300000053,17.454594300000053,17.74012730000004,17.74035980000008,17.754413699999986,17.754413699999986,17.754413699999986,18.040135700000064,,,,,,,,,,,,,,,,,,,,,,,,,,,,,,,,,,,,,,,,,,749084,001,2025-03-20_16h34.18.605,Estimulo_ICE,2024.2.4,60.211873540652185,2025-03-20 16h34.27.040791 -0300,
Estimulo_3,30,30,0,2.2,-2.2,-2.2,2.2,1.39999999999998,-1.39999999999998,1.39999999999998,-1.39999999999998,0,0,0,2,,,,,,,,,0,30,30,30,,,,,,,,,,,,,,,,,,,,,,,,,,,,,,,,,,,,,18.054696700000022,,,,18.040480500000058,18.054696700000022,18.054696700000022,18.054696700000022,18.33994849999999,18.34018070000002,18.354601600000024,18.354601600000024,18.354601600000024,18.640258500000073,,,,,,,,,,,,,,,,,,,,,,,,,,,,,,,,,,,,,,,,,,749084,001,2025-03-20_16h34.18.605,Estimulo_ICE,2024.2.4,60.211873540652185,2025-03-20 16h34.27.040791 -0300,
Estimulo_3,31,31,0,2.2,-2.2,-2.2,2.2,1.29999999999998,-1.29999999999998,1.29999999999998,-1.29999999999998,0,0,0,2,,,,,,,,,0,31,31,31,,,,,,,,,,,,,,,,,,,,,,,,,,,,,,,,,,,,,18.654575099999875,,,,18.640603300000066,18.654575099999875,18.654575099999875,18.654575099999875,18.94006749999994,18.940301399999953,18.95459750000009,18.95459750000009,18.95459750000009,19.24017260000005,,,,,,,,,,,,,,,,,,,,,,,,,,,,,,,,,,,,,,,,,,749084,001,2025-03-20_16h34.18.605,Estimulo_ICE,2024.2.4,60.211873540652185,2025-03-20 16h34.27.040791 -0300,
Estimulo_3,32,32,0,2.2,-2.2,-2.2,2.2,1.19999999999998,-1.19999999999998,1.19999999999998,-1.19999999999998,0,0,0,2,,,,,,,,,0,32,32,32,,,,,,,,,,,,,,,,,,,,,,,,,,,,,,,,,,,,,19.254619000000048,,,,19.240520099999912,19.254619000000048,19.254619000000048,19.254619000000048,19.54008010000007,19.54030929999999,19.55443809999997,19.55443809999997,19.55443809999997,19.840101199999935,,,,,,,,,,,,,,,,,,,,,,,,,,,,,,,,,,,,,,,,,,749084,001,2025-03-20_16h34.18.605,Estimulo_ICE,2024.2.4,60.211873540652185,2025-03-20 16h34.27.040791 -0300,
Estimulo_3,33,33,0,2.2,-2.2,-2.2,2.2,1.09999999999998,-1.09999999999998,1.09999999999998,-1.09999999999998,0,0,0,2,,,,,,,,,0,33,33,33,,,,,,,,,,,,,,,,,,,,,,,,,,,,,,,,,,,,,19.854454699999906,,,,19.840445000000045,19.854454699999906,19.854454699999906,19.854454699999906,20.13999540000009,20.140229999999974,20.154284199999893,20.154284199999893,20.154284199999893,20.440119399999958,,,,,,,,,,,,,,,,,,,,,,,,,,,,,,,,,,,,,,,,,,749084,001,2025-03-20_16h34.18.605,Estimulo_ICE,2024.2.4,60.211873540652185,2025-03-20 16h34.27.040791 -0300,
Estimulo_3,0,0,0,,,,,,,,,0,0,0,2,,,,,,,,,,,,,,,,,,,,,,,,,,,,,,,,,,,,,,,,,,,,,,,,,,,,,,,,,,,,,,,20.56547219999993,20.570695099999966,21.94010729999991,,,,,,,,,,,,,,,,,,,,,,,,,,,,,,,,,,,,,,,749084,001,2025-03-20_16h34.18.605,Estimulo_ICE,2024.2.4,60.211873540652185,2025-03-20 16h34.27.040791 -0300,
Estimulo_8,0,0,0,2.2,-2.2,-2.2,2.2,1.09999999999998,-1.09999999999998,1.09999999999998,-1.09999999999998,0,1,1,7,,,,,,,,,,,,,,,,,,,,,,,,,,,,,0,0,0,0,,,,,,,,,,,,,,,,,22.036987299999964,,21.940216100000043,21.940600899999936,,,,,,,,,,,,,,22.034247399999913,22.036987299999964,22.036987299999964,22.036987299999964,22.240459399999963,22.24068229999989,22.254658000000063,22.254658000000063,22.254658000000063,22.554570199999944,22.554570199999944,22.554570199999944,22.540516499999967,,,,,,,,,,,,,,,,,,,,,,,,,,749084,001,2025-03-20_16h34.18.605,Estimulo_ICE,2024.2.4,60.211873540652185,2025-03-20 16h34.27.040791 -0300,
Estimulo_8,1,1,0,2.2,-2.2,-2.2,2.2,1.19999999999998,-1.19999999999998,1.19999999999998,-1.19999999999998,0,1,1,7,,,,,,,,,,,,,,,,,,,,,,,,,,,,,0,1,1,1,,,,,,,,,,,,,,,,,22.554570199999944,,,,,,,,,,,,,,,,,22.5408731,22.554570199999944,22.554570199999944,22.554570199999944,22.840390800000023,22.840633600000046,22.8545552999999,22.8545552999999,22.8545552999999,23.154288499999893,23.154288499999893,23.154288499999893,23.140553799999907,22.8545552999999,22.8545552999999,22.8545552999999,,,,,,,,,,,,,,,,,,,,,,,749084,001,2025-03-20_16h34.18.605,Estimulo_ICE,2024.2.4,60.211873540652185,2025-03-20 16h34.27.040791 -0300,
Estimulo_8,2,2,0,2.2,-2.2,-2.2,2.2,1.29999999999998,-1.29999999999998,1.29999999999998,-1.29999999999998,0,1,1,7,,,,,,,,,,,,,,,,,,,,,,,,,,,,,0,2,2,2,,,,,,,,,,,,,,,,,23.154288499999893,,,,,,,,,,,,,,,,,23.14091089999988,23.154288499999893,23.154288499999893,23.154288499999893,23.440546799999993,23.440789400000085,23.454601299999922,23.454601299999922,23.454601299999922,23.75453249999987,23.75453249999987,23.75453249999987,23.740403600000036,23.454601299999922,23.454601299999922,23.454601299999922,,,,,,,,,,,,,,,,,,,,,,,749084,001,2025-03-20_16h34.18.605,Estimulo_ICE,2024.2.4,60.211873540652185,2025-03-20 16h34.27.040791 -0300,
Estimulo_8,3,3,0,2.2,-2.2,-2.2,2.2,1.39999999999998,-1.39999999999998,1.39999999999998,-1.39999999999998,0,1,1,7,,,,,,,,,,,,,,,,,,,,,,,,,,,,,0,3,3,3,,,,,,,,,,,,,,,,,23.75453249999987,,,,,,,,,,,,,,,,,23.7407596999999,23.75453249999987,23.75453249999987,23.75453249999987,24.040265500000032,24.040490800000043,24.05454860000009,24.05454860000009,24.05454860000009,24.354426500000045,24.354426500000045,24.354426500000045,24.340669499999876,24.05454860000009,24.05454860000009,24.05454860000009,,,,,,,,,,,,,,,,,,,,,,,749084,001,2025-03-20_16h34.18.605,Estimulo_ICE,2024.2.4,60.211873540652185,2025-03-20 16h34.27.040791 -0300,
Estimulo_8,4,4,0,2.2,-2.2,-2.2,2.2,1.49999999999998,-1.49999999999998,1.49999999999998,-1.49999999999998,0,1,1,7,,,,,,,,,,,,,,,,,,,,,,,,,,,,,0,4,4,4,,,,,,,,,,,,,,,,,24.354426500000045,,,,,,,,,,,,,,,,,24.341024900000093,24.354426500000045,24.354426500000045,24.354426500000045,24.64036390000001,24.64060470000004,24.654658100000006,24.654658100000006,24.654658100000006,24.954566099999965,24.954566099999965,24.954566099999965,24.94049619999987,24.654658100000006,24.654658100000006,24.654658100000006,,,,,,,,,,,,,,,,,,,,,,,749084,001,2025-03-20_16h34.18.605,Estimulo_ICE,2024.2.4,60.211873540652185,2025-03-20 16h34.27.040791 -0300,
Estimulo_8,5,5,0,2.2,-2.2,-2.2,2.2,1.59999999999998,-1.59999999999998,1.59999999999998,-1.59999999999998,0,1,1,7,,,,,,,,,,,,,,,,,,,,,,,,,,,,,0,5,5,5,,,,,,,,,,,,,,,,,24.954566099999965,,,,,,,,,,,,,,,,,24.940851000000066,24.954566099999965,24.954566099999965,24.954566099999965,25.240451299999904,25.24069519999989,25.254573599999958,25.254573599999958,25.254573599999958,25.554448599999887,25.554448599999887,25.554448599999887,25.540484200000037,25.254573599999958,25.254573599999958,25.254573599999958,,,,,,,,,,,,,,,,,,,,,,,749084,001,2025-03-20_16h34.18.605,Estimulo_ICE,2024.2.4,60.211873540652185,2025-03-20 16h34.27.040791 -0300,
Estimulo_8,6,6,0,2.2,-2.2,-2.2,2.2,1.69999999999998,-1.69999999999998,1.69999999999998,-1.69999999999998,0,1,1,7,,,,,,,,,,,,,,,,,,,,,,,,,,,,,0,6,6,6,,,,,,,,,,,,,,,,,25.554448599999887,,,,,,,,,,,,,,,,,25.540838500000064,25.554448599999887,25.554448599999887,25.554448599999887,25.84047099999998,25.840711600000077,25.854601999999886,25.854601999999886,25.854601999999886,26.154474100000016,26.154474100000016,26.154474100000016,26.140397399999983,25.854601999999886,25.854601999999886,25.854601999999886,,,,,,,,,,,,,,,,,,,,,,,749084,001,2025-03-20_16h34.18.605,Estimulo_ICE,2024.2.4,60.211873540652185,2025-03-20 16h34.27.040791 -0300,
Estimulo_8,7,7,0,2.2,-2.2,-2.2,2.2,1.79999999999998,-1.79999999999998,1.79999999999998,-1.79999999999998,0,1,1,7,,,,,,,,,,,,,,,,,,,,,,,,,,,,,0,7,7,7,,,,,,,,,,,,,,,,,26.154474100000016,,,,,,,,,,,,,,,,,26.140753099999984,26.154474100000016,26.154474100000016,26.154474100000016,26.440468999999894,26.440711400000055,26.45454689999997,26.45454689999997,26.45454689999997,,,,26.74448849999999,26.45454689999997,26.45454689999997,26.45454689999997,,,,,,,,,,,,,,,,,,,,,,,749084,001,2025-03-20_16h34.18.605,Estimulo_ICE,2024.2.4,60.211873540652185,2025-03-20 16h34.27.040791 -0300,
Estimulo_8,8,8,0,2.2,-2.2,-2.2,2.2,1.89999999999998,-1.89999999999998,1.89999999999998,-1.89999999999998,0,1,1,7,,,,,,,,,,,,,,,,,,,,,,,,,,,,,0,8,8,8,,,,,,,,,,,,,,,,,26.755806899999925,,,,,,,,,,,,,,,,,26.745361199999934,26.755806899999925,26.755806899999925,26.755806899999925,27.044624899999917,27.04520720000005,27.0559874999999,27.0559874999999,27.0559874999999,,,,27.340902800000094,,,,,,,,,,,,,,,,,,,,,,,,,,749084,001,2025-03-20_16h34.18.605,Estimulo_ICE,2024.2.4,60.211873540652185,2025-03-20 16h34.27.040791 -0300,
Estimulo_8,9,9,0,2.2,-2.2,-2.2,2.2,1.99999999999998,-1.99999999999998,1.99999999999998,-1.99999999999998,0,1,1,7,,,,,,,,,,,,,,,,,,,,,,,,,,,,,0,9,9,9,,,,,,,,,,,,,,,,,27.354774599999928,,,,,,,,,,,,,,,,,27.34136310000008,27.354774599999928,27.354774599999928,27.354774599999928,27.640484399999877,27.640725199999906,27.654528000000028,27.654528000000028,27.654528000000028,27.954525999999987,27.954525999999987,27.954525999999987,27.940344200000027,27.654528000000028,27.654528000000028,27.654528000000028,,,,,,,,,,,,,,,,,,,,,,,749084,001,2025-03-20_16h34.18.605,Estimulo_ICE,2024.2.4,60.211873540652185,2025-03-20 16h34.27.040791 -0300,
Estimulo_8,10,10,0,2.2,-2.2,-2.2,2.2,2.09999999999998,-2.09999999999998,2.09999999999998,-2.09999999999998,0,1,1,7,,,,,,,,,,,,,,,,,,,,,,,,,,,,,0,10,10,10,,,,,,,,,,,,,,,,,27.954525999999987,,,,,,,,,,,,,,,,,27.940697499999942,27.954525999999987,27.954525999999987,27.954525999999987,28.24046559999988,28.240708199999972,28.25456220000001,28.25456220000001,28.25456220000001,28.55439339999998,28.55439339999998,28.55439339999998,28.54041499999994,28.25456220000001,28.25456220000001,28.25456220000001,,,,,,,,,,,,,,,,,,,,,,,749084,001,2025-03-20_16h34.18.605,Estimulo_ICE,2024.2.4,60.211873540652185,2025-03-20 16h34.27.040791 -0300,
Estimulo_8,11,11,0,2.2,-2.2,-2.2,2.2,2.19999999999998,-2.19999999999998,2.19999999999998,-2.19999999999998,0,1,1,7,,,,,,,,,,,,,,,,,,,,,,,,,,,,,0,11,11,11,,,,,,,,,,,,,,,,,28.55439339999998,,,,,,,,,,,,,,,,,28.540769199999886,28.55439339999998,28.55439339999998,28.55439339999998,28.840457100000094,28.840699500000028,28.854483600000094,28.854483600000094,28.854483600000094,29.154284700000062,29.154284700000062,29.154284700000062,29.140294999999924,28.854483600000094,28.854483600000094,28.854483600000094,,,,,,,,,,,,,,,,,,,,,,,749084,001,2025-03-20_16h34.18.605,Estimulo_ICE,2024.2.4,60.211873540652185,2025-03-20 16h34.27.040791 -0300,
Estimulo_8,12,12,0,2.2,-2.2,-2.2,2.2,2.29999999999998,-2.29999999999998,2.29999999999998,-2.29999999999998,0,1,1,7,,,,,,,,,,,,,,,,,,,,,,,,,,,,,0,12,12,12,,,,,,,,,,,,,,,,,29.154284700000062,,,,,,,,,,,,,,,,,29.140650699999924,29.154284700000062,29.154284700000062,29.154284700000062,29.440323399999897,29.44056499999988,29.45457119999992,29.45457119999992,29.45457119999992,29.754395599999953,29.754395599999953,29.754395599999953,29.74024499999996,29.45457119999992,29.45457119999992,29.45457119999992,,,,,,,,,,,,,,,,,,,,,,,749084,001,2025-03-20_16h34.18.605,Estimulo_ICE,2024.2.4,60.211873540652185,2025-03-20 16h34.27.040791 -0300,
Estimulo_8,13,13,0,2.2,-2.2,-2.2,2.2,2.39999999999998,-2.39999999999998,2.39999999999998,-2.39999999999998,0,1,1,7,,,,,,,,,,,,,,,,,,,,,,,,,,,,,0,13,13,13,,,,,,,,,,,,,,,,,29.754395599999953,,,,,,,,,,,,,,,,,29.74060099999997,29.754395599999953,29.754395599999953,29.754395599999953,30.04042379999987,30.04066970000008,30.054366000000073,30.054366000000073,30.054366000000073,30.354470700000093,30.354470700000093,30.354470700000093,30.340285300000005,30.054366000000073,30.054366000000073,30.054366000000073,,,,,,,,,,,,,,,,,,,,,,,749084,001,2025-03-20_16h34.18.605,Estimulo_ICE,2024.2.4,60.211873540652185,2025-03-20 16h34.27.040791 -0300,
Estimulo_8,14,14,0,2.2,-2.2,-2.2,2.2,2.49999999999998,-2.49999999999998,2.49999999999998,-2.49999999999998,0,1,1,7,,,,,,,,,,,,,,,,,,,,,,,,,,,,,0,14,14,14,,,,,,,,,,,,,,,,,30.354470700000093,,,,,,,,,,,,,,,,,30.340662300000076,30.354470700000093,30.354470700000093,30.354470700000093,30.64026540000009,30.640505800000028,30.654563600000074,30.654563600000074,30.654563600000074,30.954311899999993,30.954311899999993,30.954311899999993,30.941022100000055,30.654563600000074,30.654563600000074,30.654563600000074,,,,,,,,,,,,,,,,,,,,,,,749084,001,2025-03-20_16h34.18.605,Estimulo_ICE,2024.2.4,60.211873540652185,2025-03-20 16h34.27.040791 -0300,
Estimulo_8,15,15,0,2.2,-2.2,-2.2,2.2,2.59999999999998,-2.59999999999998,2.59999999999998,-2.59999999999998,0,1,1,7,,,,,,,,,,,,,,,,,,,,,,,,,,,,,0,15,15,15,,,,,,,,,,,,,,,,,30.954311899999993,,,,,,,,,,,,,,,,,30.941373200000044,30.954311899999993,30.954311899999993,30.954311899999993,31.240440499999977,31.24068280000006,31.254433699999936,31.254433699999936,31.254433699999936,31.55433270000003,31.55433270000003,31.55433270000003,31.540421700000024,31.254433699999936,31.254433699999936,31.254433699999936,,,,,,,,,,,,,,,,,,,,,,,749084,001,2025-03-20_16h34.18.605,Estimulo_ICE,2024.2.4,60.211873540652185,2025-03-20 16h34.27.040791 -0300,
Estimulo_8,16,16,0,2.2,-2.2,-2.2,2.2,2.69999999999998,-2.69999999999998,2.69999999999998,-2.69999999999998,0,1,1,7,,,,,,,,,,,,,,,,,,,,,,,,,,,,,0,16,16,16,,,,,,,,,,,,,,,,,31.55433270000003,,,,,,,,,,,,,,,,,31.54077989999996,31.55433270000003,31.55433270000003,31.55433270000003,31.840312499999982,31.840553999999884,31.854634600000054,31.854634600000054,31.854634600000054,32.15444789999992,32.15444789999992,32.15444789999992,32.14033919999997,31.854634600000054,31.854634600000054,31.854634600000054,,,,,,,,,,,,,,,,,,,,,,,749084,001,2025-03-20_16h34.18.605,Estimulo_ICE,2024.2.4,60.211873540652185,2025-03-20 16h34.27.040791 -0300,
Estimulo_8,17,17,0,2.2,-2.2,-2.2,2.2,2.79999999999998,-2.79999999999998,2.79999999999998,-2.79999999999998,0,1,1,7,,,,,,,,,,,,,,,,,,,,,,,,,,,,,0,17,17,17,,,,,,,,,,,,,,,,,32.15444789999992,,,,,,,,,,,,,,,,,32.14069309999991,32.15444789999992,32.15444789999992,32.15444789999992,32.44044050000002,32.440682700000025,32.454464500000086,32.454464500000086,32.454464500000086,32.75448200000005,32.75448200000005,32.75448200000005,32.74032699999998,32.454464500000086,32.454464500000086,32.454464500000086,,,,,,,,,,,,,,,,,,,,,,,749084,001,2025-03-20_16h34.18.605,Estimulo_ICE,2024.2.4,60.211873540652185,2025-03-20 16h34.27.040791 -0300,
Estimulo_8,18,18,0,2.2,-2.2,-2.2,2.2,2.89999999999998,-2.89999999999998,2.89999999999998,-2.89999999999998,0,1,1,7,,,,,,,,,,,,,,,,,,,,,,,,,,,,,0,18,18,18,,,,,,,,,,,,,,,,,32.75448200000005,,,,,,,,,,,,,,,,,32.74068379999994,32.75448200000005,32.75448200000005,32.75448200000005,33.040278400000034,33.040519800000084,33.054574600000024,33.054574600000024,33.054574600000024,33.35435549999988,33.35435549999988,33.35435549999988,33.34037310000008,33.054574600000024,33.054574600000024,33.054574600000024,,,,,,,,,,,,,,,,,,,,,,,749084,001,2025-03-20_16h34.18.605,Estimulo_ICE,2024.2.4,60.211873540652185,2025-03-20 16h34.27.040791 -0300,
Estimulo_8,19,19,0,2.2,-2.2,-2.2,2.2,2.99999999999998,-2.99999999999998,2.99999999999998,-2.99999999999998,0,1,1,7,,,,,,,,,,,,,,,,,,,,,,,,,,,,,0,19,19,19,,,,,,,,,,,,,,,,,33.35435549999988,,,,,,,,,,,,,,,,,33.34073020000005,33.35435549999988,33.35435549999988,33.35435549999988,33.64024810000001,33.640491599999905,33.654436900000064,33.654436900000064,33.654436900000064,33.95439400000009,33.95439400000009,33.95439400000009,33.94040150000001,33.654436900000064,33.654436900000064,33.654436900000064,,,,,,,,,,,,,,,,,,,,,,,749084,001,2025-03-20_16h34.18.605,Estimulo_ICE,2024.2.4,60.211873540652185,2025-03-20 16h34.27.040791 -0300,
Estimulo_8,20,20,0,2.2,-2.2,-2.2,2.2,3.09999999999998,-3.09999999999998,3.09999999999998,-3.09999999999998,0,1,1,7,,,,,,,,,,,,,,,,,,,,,,,,,,,,,0,20,20,20,,,,,,,,,,,,,,,,,33.95439400000009,,,,,,,,,,,,,,,,,33.9407647999999,33.95439400000009,33.95439400000009,33.95439400000009,34.24039739999989,34.24063950000004,34.25427250000007,34.25427250000007,34.25427250000007,34.55440090000002,34.55440090000002,34.55440090000002,34.540368899999976,34.25427250000007,34.25427250000007,34.25427250000007,,,,,,,,,,,,,,,,,,,,,,,749084,001,2025-03-20_16h34.18.605,Estimulo_ICE,2024.2.4,60.211873540652185,2025-03-20 16h34.27.040791 -0300,
Estimulo_8,21,21,0,2.2,-2.2,-2.2,2.2,3.19999999999998,-3.19999999999998,3.19999999999998,-3.19999999999998,0,1,1,7,,,,,,,,,,,,,,,,,,,,,,,,,,,,,0,21,21,21,,,,,,,,,,,,,,,,,34.55440090000002,,,,,,,,,,,,,,,,,34.54072530000008,34.55440090000002,34.55440090000002,34.55440090000002,34.840281600000026,34.840522700000065,34.85444800000005,34.85444800000005,34.85444800000005,35.15425120000009,35.15425120000009,35.15425120000009,35.140210199999956,34.85444800000005,34.85444800000005,34.85444800000005,,,,,,,,,,,,,,,,,,,,,,,749084,001,2025-03-20_16h34.18.605,Estimulo_ICE,2024.2.4,60.211873540652185,2025-03-20 16h34.27.040791 -0300,
Estimulo_8,22,22,0,2.2,-2.2,-2.2,2.2,3.29999999999998,-3.29999999999998,3.29999999999998,-3.29999999999998,0,1,1,7,,,,,,,,,,,,,,,,,,,,,,,,,,,,,0,22,22,22,,,,,,,,,,,,,,,,,35.15425120000009,,,,,,,,,,,,,,,,,35.14056370000003,35.15425120000009,35.15425120000009,35.15425120000009,35.440249199999926,35.440490299999965,35.45443840000007,35.45443840000007,35.45443840000007,35.75441879999994,35.75441879999994,35.75441879999994,35.7403675999999,35.45443840000007,35.45443840000007,35.45443840000007,,,,,,,,,,,,,,,,,,,,,,,749084,001,2025-03-20_16h34.18.605,Estimulo_ICE,2024.2.4,60.211873540652185,2025-03-20 16h34.27.040791 -0300,
Estimulo_8,23,23,0,2.2,-2.2,-2.2,2.2,3.39999999999998,-3.39999999999998,3.39999999999998,-3.39999999999998,0,1,1,7,,,,,,,,,,,,,,,,,,,,,,,,,,,,,0,23,23,23,,,,,,,,,,,,,,,,,35.75441879999994,,,,,,,,,,,,,,,,,35.74072359999991,35.75441879999994,35.75441879999994,35.75441879999994,36.04029309999987,36.040535599999885,36.05443839999998,36.05443839999998,36.05443839999998,36.35443659999987,36.35443659999987,36.35443659999987,36.34024520000003,36.05443839999998,36.05443839999998,36.05443839999998,,,,,,,,,,,,,,,,,,,,,,,749084,001,2025-03-20_16h34.18.605,Estimulo_ICE,2024.2.4,60.211873540652185,2025-03-20 16h34.27.040791 -0300,
Estimulo_8,24,24,0,2.2,-2.2,-2.2,2.2,3.49999999999998,-3.49999999999998,3.49999999999998,-3.49999999999998,0,1,1,7,,,,,,,,,,,,,,,,,,,,,,,,,,,,,0,24,24,24,,,,,,,,,,,,,,,,,36.35443659999987,,,,,,,,,,,,,,,,,36.34060249999993,36.35443659999987,36.35443659999987,36.35443659999987,36.640369599999985,36.640610400000014,36.65442159999998,36.65442159999998,36.65442159999998,36.95445049999989,36.95445049999989,36.95445049999989,36.94021980000002,36.65442159999998,36.65442159999998,36.65442159999998,,,,,,,,,,,,,,,,,,,,,,,749084,001,2025-03-20_16h34.18.605,Estimulo_ICE,2024.2.4,60.211873540652185,2025-03-20 16h34.27.040791 -0300,
Estimulo_8,25,25,0,2.2,-2.2,-2.2,2.2,3.59999999999998,-3.59999999999998,3.59999999999998,-3.59999999999998,0,1,1,7,,,,,,,,,,,,,,,,,,,,,,,,,,,,,0,25,25,25,,,,,,,,,,,,,,,,,36.95445049999989,,,,,,,,,,,,,,,,,36.94057500000008,36.95445049999989,36.95445049999989,36.95445049999989,37.23213809999993,37.23300210000002,37.2554247999999,37.2554247999999,37.2554247999999,,,,37.54086099999995,,,,,,,,,,,,,,,,,,,,,,,,,,749084,001,2025-03-20_16h34.18.605,Estimulo_ICE,2024.2.4,60.211873540652185,2025-03-20 16h34.27.040791 -0300,
Estimulo_8,26,26,0,2.2,-2.2,-2.2,2.2,3.69999999999998,-3.69999999999998,3.69999999999998,-3.69999999999998,0,1,1,7,,,,,,,,,,,,,,,,,,,,,,,,,,,,,0,26,26,26,,,,,,,,,,,,,,,,,37.55460259999995,,,,,,,,,,,,,,,,,37.541325500000085,37.55460259999995,37.55460259999995,37.55460259999995,37.84080749999998,37.84111789999997,37.854736699999876,37.854736699999876,37.854736699999876,,,,38.14082989999997,,,,,,,,,,,,,,,,,,,,,,,,,,749084,001,2025-03-20_16h34.18.605,Estimulo_ICE,2024.2.4,60.211873540652185,2025-03-20 16h34.27.040791 -0300,
Estimulo_8,27,27,0,2.2,-2.2,-2.2,2.2,3.79999999999998,-3.79999999999998,3.79999999999998,-3.79999999999998,0,1,1,7,,,,,,,,,,,,,,,,,,,,,,,,,,,,,0,27,27,27,,,,,,,,,,,,,,,,,38.15417419999994,,,,,,,,,,,,,,,,,38.141288999999915,38.15417419999994,38.15417419999994,38.15417419999994,38.44035030000009,38.44059870000001,38.45445070000005,38.45445070000005,38.45445070000005,38.754392099999905,38.754392099999905,38.754392099999905,38.740227300000015,38.45445070000005,38.45445070000005,38.45445070000005,,,,,,,,,,,,,,,,,,,,,,,749084,001,2025-03-20_16h34.18.605,Estimulo_ICE,2024.2.4,60.211873540652185,2025-03-20 16h34.27.040791 -0300,
Estimulo_8,28,28,0,2.2,-2.2,-2.2,2.2,3.89999999999998,-3.89999999999998,3.89999999999998,-3.89999999999998,0,1,1,7,,,,,,,,,,,,,,,,,,,,,,,,,,,,,0,28,28,28,,,,,,,,,,,,,,,,,38.754392099999905,,,,,,,,,,,,,,,,,38.74058050000008,38.754392099999905,38.754392099999905,38.754392099999905,39.04007929999989,39.0403311,39.054444299999886,39.054444299999886,39.054444299999886,39.35438619999991,39.35438619999991,39.35438619999991,39.34019199999989,39.054444299999886,39.054444299999886,39.054444299999886,,,,,,,,,,,,,,,,,,,,,,,749084,001,2025-03-20_16h34.18.605,Estimulo_ICE,2024.2.4,60.211873540652185,2025-03-20 16h34.27.040791 -0300,
Estimulo_8,29,29,0,2.2,-2.2,-2.2,2.2,3.99999999999998,-3.99999999999998,3.99999999999998,-3.99999999999998,0,1,1,7,,,,,,,,,,,,,,,,,,,,,,,,,,,,,0,29,29,29,,,,,,,,,,,,,,,,,39.35438619999991,,,,,,,,,,,,,,,,,39.3405479999999,39.35438619999991,39.35438619999991,39.35438619999991,39.64033930000005,39.64057950000006,39.65421100000003,39.65421100000003,39.65421100000003,39.954479900000024,39.954479900000024,39.954479900000024,39.940290300000015,39.65421100000003,39.65421100000003,39.65421100000003,,,,,,,,,,,,,,,,,,,,,,,749084,001,2025-03-20_16h34.18.605,Estimulo_ICE,2024.2.4,60.211873540652185,2025-03-20 16h34.27.040791 -0300,
Estimulo_8,30,30,0,2.2,-2.2,-2.2,2.2,4.09999999999998,-4.09999999999998,4.09999999999998,-4.09999999999998,0,1,1,7,,,,,,,,,,,,,,,,,,,,,,,,,,,,,0,30,30,30,,,,,,,,,,,,,,,,,39.954479900000024,,,,,,,,,,,,,,,,,39.940645299999915,39.954479900000024,39.954479900000024,39.954479900000024,40.24035849999996,40.24059839999995,40.25430830000005,40.25430830000005,40.25430830000005,40.55442130000006,40.55442130000006,40.55442130000006,40.54034269999988,40.25430830000005,40.25430830000005,40.25430830000005,,,,,,,,,,,,,,,,,,,,,,,749084,001,2025-03-20_16h34.18.605,Estimulo_ICE,2024.2.4,60.211873540652185,2025-03-20 16h34.27.040791 -0300,
Estimulo_8,31,31,0,2.2,-2.2,-2.2,2.2,4.19999999999998,-4.19999999999998,4.19999999999998,-4.19999999999998,0,1,1,7,,,,,,,,,,,,,,,,,,,,,,,,,,,,,0,31,31,31,,,,,,,,,,,,,,,,,40.55442130000006,,,,,,,,,,,,,,,,,40.540700300000026,40.55442130000006,40.55442130000006,40.55442130000006,40.84030050000001,40.840542899999946,40.85440270000004,40.85440270000004,40.85440270000004,41.15416049999999,41.15416049999999,41.15416049999999,41.140343999999914,40.85440270000004,40.85440270000004,40.85440270000004,,,,,,,,,,,,,,,,,,,,,,,749084,001,2025-03-20_16h34.18.605,Estimulo_ICE,2024.2.4,60.211873540652185,2025-03-20 16h34.27.040791 -0300,
Estimulo_8,32,32,0,2.2,-2.2,-2.2,2.2,4.29999999999998,-4.29999999999998,4.29999999999998,-4.29999999999998,0,1,1,7,,,,,,,,,,,,,,,,,,,,,,,,,,,,,0,32,32,32,,,,,,,,,,,,,,,,,41.15416049999999,,,,,,,,,,,,,,,,,41.140700700000025,41.15416049999999,41.15416049999999,41.15416049999999,41.440359700000045,41.440600299999915,41.45445629999995,41.45445629999995,41.45445629999995,41.75442010000006,41.75442010000006,41.75442010000006,41.740301300000056,41.45445629999995,41.45445629999995,41.45445629999995,,,,,,,,,,,,,,,,,,,,,,,749084,001,2025-03-20_16h34.18.605,Estimulo_ICE,2024.2.4,60.211873540652185,2025-03-20 16h34.27.040791 -0300,
Estimulo_8,33,33,0,2.2,-2.2,-2.2,2.2,4.39999999999998,-4.39999999999998,4.39999999999998,-4.39999999999998,0,1,1,7,,,,,,,,,,,,,,,,,,,,,,,,,,,,,0,33,33,33,,,,,,,,,,,,,,,,,41.75442010000006,,,,,,,,,,,,,,,,,41.740656299999955,41.75442010000006,41.75442010000006,41.75442010000006,42.04029259999993,42.04053339999996,42.05419030000007,42.05419030000007,42.05419030000007,42.4038728999999,42.4038728999999,42.4038728999999,42.34033950000003,42.05419030000007,42.05419030000007,42.05419030000007,,,,,,,,,,,,,,,,,,,,,,,749084,001,2025-03-20_16h34.18.605,Estimulo_ICE,2024.2.4,60.211873540652185,2025-03-20 16h34.27.040791 -0300,
Estimulo_8,1,1,0,,,,,,,,,0,1,1,7,,,,,,,,,,,,,,,,,,,,,,,,,,,,,,,,,,,,,,,,,,,,,,,,,,,,,,,,,,,,,,,42.39330580000001,42.4038728999999,43.84100820000003,,,,,,,,,,,,,,,,,,,,,,,,,,,,,,,,,,,,,,,749084,001,2025-03-20_16h34.18.605,Estimulo_ICE,2024.2.4,60.211873540652185,2025-03-20 16h34.27.040791 -0300,
Estimulo_12,0,0,0,2.2,-2.2,-2.2,2.2,1.09999999999998,-1.09999999999998,1.09999999999998,-1.09999999999998,0,2,2,11,,,,,,,,,,,,,,,,,,,,,,,,,,,,,,,,,,,,,,,,,,,,,0,0,0,0,43.98698280000008,,43.8411509,43.84156789999997,,,,,,,,,,,,,,,,,,,,,,,,,,,,,,43.98399519999998,43.98698280000008,43.98698280000008,43.98698280000008,44.15625290000003,44.15645749999999,44.170817799999895,44.170817799999895,44.170817799999895,44.45640750000007,,,,,,,,,,,,,749084,001,2025-03-20_16h34.18.605,Estimulo_ICE,2024.2.4,60.211873540652185,2025-03-20 16h34.27.040791 -0300,
Estimulo_12,1,1,0,2.2,-2.2,-2.2,2.2,1.19999999999998,-1.19999999999998,1.19999999999998,-1.19999999999998,0,2,2,11,,,,,,,,,,,,,,,,,,,,,,,,,,,,,,,,,,,,,,,,,,,,,0,1,1,1,44.47100339999997,,,,,,,,,,,,,,,,,,,,,,,,,,,,,,,,,44.456765599999926,44.47100339999997,44.47100339999997,44.47100339999997,44.75637890000007,44.75661769999988,44.771056000000044,44.771056000000044,44.771056000000044,45.04278399999998,,,,,,,,,,,,,749084,001,2025-03-20_16h34.18.605,Estimulo_ICE,2024.2.4,60.211873540652185,2025-03-20 16h34.27.040791 -0300,
Estimulo_12,2,2,0,2.2,-2.2,-2.2,2.2,1.29999999999998,-1.29999999999998,1.29999999999998,-1.29999999999998,0,2,2,11,,,,,,,,,,,,,,,,,,,,,,,,,,,,,,,,,,,,,,,,,,,,,0,2,2,2,45.05522700000006,,,,,,,,,,,,,,,,,,,,,,,,,,,,,,,,,45.04347480000001,45.05522700000006,45.05522700000006,45.05522700000006,45.34104030000003,45.34134089999998,45.35454249999998,45.35454249999998,45.35454249999998,45.64117119999992,45.35454249999998,45.35454249999998,45.35454249999998,45.65433639999992,45.65433639999992,45.65433639999992,,,,,,,749084,001,2025-03-20_16h34.18.605,Estimulo_ICE,2024.2.4,60.211873540652185,2025-03-20 16h34.27.040791 -0300,
Estimulo_12,3,3,0,2.2,-2.2,-2.2,2.2,1.39999999999998,-1.39999999999998,1.39999999999998,-1.39999999999998,0,2,2,11,,,,,,,,,,,,,,,,,,,,,,,,,,,,,,,,,,,,,,,,,,,,,0,3,3,3,45.65433639999992,,,,,,,,,,,,,,,,,,,,,,,,,,,,,,,,,45.641615999999885,45.65433639999992,45.65433639999992,45.65433639999992,45.9409920999999,45.941292400000066,45.954770199999984,45.954770199999984,45.954770199999984,46.24103990000003,45.954770199999984,45.954770199999984,45.954770199999984,46.25446110000007,46.25446110000007,46.25446110000007,,,,,,,749084,001,2025-03-20_16h34.18.605,Estimulo_ICE,2024.2.4,60.211873540652185,2025-03-20 16h34.27.040791 -0300,
Estimulo_12,4,4,0,2.2,-2.2,-2.2,2.2,1.49999999999998,-1.49999999999998,1.49999999999998,-1.49999999999998,0,2,2,11,,,,,,,,,,,,,,,,,,,,,,,,,,,,,,,,,,,,,,,,,,,,,0,4,4,4,46.25446110000007,,,,,,,,,,,,,,,,,,,,,,,,,,,,,,,,,46.241490099999965,46.25446110000007,46.25446110000007,46.25446110000007,46.541039299999966,46.541340799999944,46.554493200000024,46.554493200000024,46.554493200000024,46.841127599999936,46.554493200000024,46.554493200000024,46.554493200000024,46.85451289999992,46.85451289999992,46.85451289999992,,,,,,,749084,001,2025-03-20_16h34.18.605,Estimulo_ICE,2024.2.4,60.211873540652185,2025-03-20 16h34.27.040791 -0300,
Estimulo_12,5,5,0,2.2,-2.2,-2.2,2.2,1.59999999999998,-1.59999999999998,1.59999999999998,-1.59999999999998,0,2,2,11,,,,,,,,,,,,,,,,,,,,,,,,,,,,,,,,,,,,,,,,,,,,,0,5,5,5,46.85451289999992,,,,,,,,,,,,,,,,,,,,,,,,,,,,,,,,,46.84157060000007,46.85451289999992,46.85451289999992,46.85451289999992,47.14106130000005,47.14136059999987,47.15413639999997,47.15413639999997,47.15413639999997,47.44020589999991,47.15413639999997,47.15413639999997,47.15413639999997,47.454361900000094,47.454361900000094,47.454361900000094,,,,,,,749084,001,2025-03-20_16h34.18.605,Estimulo_ICE,2024.2.4,60.211873540652185,2025-03-20 16h34.27.040791 -0300,
Estimulo_12,6,6,0,2.2,-2.2,-2.2,2.2,1.69999999999998,-1.69999999999998,1.69999999999998,-1.69999999999998,0,2,2,11,,,,,,,,,,,,,,,,,,,,,,,,,,,,,,,,,,,,,,,,,,,,,0,6,6,6,47.454361900000094,,,,,,,,,,,,,,,,,,,,,,,,,,,,,,,,,47.44056159999991,47.454361900000094,47.454361900000094,47.454361900000094,47.74022609999997,47.74046539999995,47.75430149999988,47.75430149999988,47.75430149999988,48.040373300000056,47.75430149999988,47.75430149999988,47.75430149999988,48.05427379999992,48.05427379999992,48.05427379999992,,,,,,,749084,001,2025-03-20_16h34.18.605,Estimulo_ICE,2024.2.4,60.211873540652185,2025-03-20 16h34.27.040791 -0300,
Estimulo_12,7,7,0,2.2,-2.2,-2.2,2.2,1.79999999999998,-1.79999999999998,1.79999999999998,-1.79999999999998,0,2,2,11,,,,,,,,,,,,,,,,,,,,,,,,,,,,,,,,,,,,,,,,,,,,,0,7,7,7,48.05427379999992,,,,,,,,,,,,,,,,,,,,,,,,,,,,,,,,,48.04073049999988,48.05427379999992,48.05427379999992,48.05427379999992,48.340219599999955,48.34046190000004,48.354329100000086,48.354329100000086,48.354329100000086,48.640332899999976,48.354329100000086,48.354329100000086,48.354329100000086,48.654297399999905,48.654297399999905,48.654297399999905,,,,,,,749084,001,2025-03-20_16h34.18.605,Estimulo_ICE,2024.2.4,60.211873540652185,2025-03-20 16h34.27.040791 -0300,
Estimulo_12,8,8,0,2.2,-2.2,-2.2,2.2,1.89999999999998,-1.89999999999998,1.89999999999998,-1.89999999999998,0,2,2,11,,,,,,,,,,,,,,,,,,,,,,,,,,,,,,,,,,,,,,,,,,,,,0,8,8,8,48.654297399999905,,,,,,,,,,,,,,,,,,,,,,,,,,,,,,,,,48.64068909999992,48.654297399999905,48.654297399999905,48.654297399999905,48.94027690000007,48.94051719999993,48.954349800000045,48.954349800000045,48.954349800000045,49.240300400000024,48.954349800000045,48.954349800000045,48.954349800000045,49.25425100000007,49.25425100000007,49.25425100000007,,,,,,,749084,001,2025-03-20_16h34.18.605,Estimulo_ICE,2024.2.4,60.211873540652185,2025-03-20 16h34.27.040791 -0300,
Estimulo_12,9,9,0,2.2,-2.2,-2.2,2.2,1.99999999999998,-1.99999999999998,1.99999999999998,-1.99999999999998,0,2,2,11,,,,,,,,,,,,,,,,,,,,,,,,,,,,,,,,,,,,,,,,,,,,,0,9,9,9,49.25425100000007,,,,,,,,,,,,,,,,,,,,,,,,,,,,,,,,,49.24065760000008,49.25425100000007,49.25425100000007,49.25425100000007,49.54035909999993,49.54060060000006,49.55416990000003,49.55416990000003,49.55416990000003,49.84019999999987,49.55416990000003,49.55416990000003,49.55416990000003,49.85432209999999,49.85432209999999,49.85432209999999,,,,,,,749084,001,2025-03-20_16h34.18.605,Estimulo_ICE,2024.2.4,60.211873540652185,2025-03-20 16h34.27.040791 -0300,
Estimulo_12,10,10,0,2.2,-2.2,-2.2,2.2,2.09999999999998,-2.09999999999998,2.09999999999998,-2.09999999999998,0,2,2,11,,,,,,,,,,,,,,,,,,,,,,,,,,,,,,,,,,,,,,,,,,,,,0,10,10,10,49.85432209999999,,,,,,,,,,,,,,,,,,,,,,,,,,,,,,,,,49.84055760000001,49.85432209999999,49.85432209999999,49.85432209999999,50.140308000000005,50.14054830000009,50.15407359999995,50.15407359999995,50.15407359999995,50.44034469999997,50.15407359999995,50.15407359999995,50.15407359999995,50.454321400000026,50.454321400000026,50.454321400000026,,,,,,,749084,001,2025-03-20_16h34.18.605,Estimulo_ICE,2024.2.4,60.211873540652185,2025-03-20 16h34.27.040791 -0300,
Estimulo_12,11,11,0,2.2,-2.2,-2.2,2.2,2.19999999999998,-2.19999999999998,2.19999999999998,-2.19999999999998,0,2,2,11,,,,,,,,,,,,,,,,,,,,,,,,,,,,,,,,,,,,,,,,,,,,,0,11,11,11,50.454321400000026,,,,,,,,,,,,,,,,,,,,,,,,,,,,,,,,,50.44070450000004,50.454321400000026,50.454321400000026,50.454321400000026,50.74026739999999,50.74051009999994,50.75432619999992,50.75432619999992,50.75432619999992,51.04009589999987,50.75432619999992,50.75432619999992,50.75432619999992,51.05432739999992,51.05432739999992,51.05432739999992,,,,,,,749084,001,2025-03-20_16h34.18.605,Estimulo_ICE,2024.2.4,60.211873540652185,2025-03-20 16h34.27.040791 -0300,
Estimulo_12,12,12,0,2.2,-2.2,-2.2,2.2,2.29999999999998,-2.29999999999998,2.29999999999998,-2.29999999999998,0,2,2,11,,,,,,,,,,,,,,,,,,,,,,,,,,,,,,,,,,,,,,,,,,,,,0,12,12,12,51.05432739999992,,,,,,,,,,,,,,,,,,,,,,,,,,,,,,,,,51.040462299999945,51.05432739999992,51.05432739999992,51.05432739999992,51.34010469999998,51.3403558,51.354286999999886,51.354286999999886,51.354286999999886,51.640274599999884,51.354286999999886,51.354286999999886,51.354286999999886,51.65427169999998,51.65427169999998,51.65427169999998,,,,,,,749084,001,2025-03-20_16h34.18.605,Estimulo_ICE,2024.2.4,60.211873540652185,2025-03-20 16h34.27.040791 -0300,
Estimulo_12,13,13,0,2.2,-2.2,-2.2,2.2,2.39999999999998,-2.39999999999998,2.39999999999998,-2.39999999999998,0,2,2,11,,,,,,,,,,,,,,,,,,,,,,,,,,,,,,,,,,,,,,,,,,,,,0,13,13,13,51.65427169999998,,,,,,,,,,,,,,,,,,,,,,,,,,,,,,,,,51.64063259999989,51.65427169999998,51.65427169999998,51.65427169999998,51.94023500000003,51.94047449999994,51.95415009999988,51.95415009999988,51.95415009999988,52.240205999999944,51.95415009999988,51.95415009999988,51.95415009999988,52.254314900000054,52.254314900000054,52.254314900000054,,,,,,,749084,001,2025-03-20_16h34.18.605,Estimulo_ICE,2024.2.4,60.211873540652185,2025-03-20 16h34.27.040791 -0300,
Estimulo_12,14,14,0,2.2,-2.2,-2.2,2.2,2.49999999999998,-2.49999999999998,2.49999999999998,-2.49999999999998,0,2,2,11,,,,,,,,,,,,,,,,,,,,,,,,,,,,,,,,,,,,,,,,,,,,,0,14,14,14,52.254314900000054,,,,,,,,,,,,,,,,,,,,,,,,,,,,,,,,,52.240562499999896,52.254314900000054,52.254314900000054,52.254314900000054,52.54024869999989,52.5404888999999,52.55428119999988,52.55428119999988,52.55428119999988,52.84006739999995,52.55428119999988,52.55428119999988,52.55428119999988,52.854278699999895,52.854278699999895,52.854278699999895,,,,,,,749084,001,2025-03-20_16h34.18.605,Estimulo_ICE,2024.2.4,60.211873540652185,2025-03-20 16h34.27.040791 -0300,
Estimulo_12,15,15,0,2.2,-2.2,-2.2,2.2,2.59999999999998,-2.59999999999998,2.59999999999998,-2.59999999999998,0,2,2,11,,,,,,,,,,,,,,,,,,,,,,,,,,,,,,,,,,,,,,,,,,,,,0,15,15,15,52.854278699999895,,,,,,,,,,,,,,,,,,,,,,,,,,,,,,,,,52.84042580000005,52.854278699999895,52.854278699999895,52.854278699999895,53.14025309999988,53.140495699999974,53.15405140000007,53.15405140000007,53.15405140000007,53.44024710000008,53.15405140000007,53.15405140000007,53.15405140000007,53.45427960000006,53.45427960000006,53.45427960000006,,,,,,,749084,001,2025-03-20_16h34.18.605,Estimulo_ICE,2024.2.4,60.211873540652185,2025-03-20 16h34.27.040791 -0300,
Estimulo_12,16,16,0,2.2,-2.2,-2.2,2.2,2.69999999999998,-2.69999999999998,2.69999999999998,-2.69999999999998,0,2,2,11,,,,,,,,,,,,,,,,,,,,,,,,,,,,,,,,,,,,,,,,,,,,,0,16,16,16,53.45427960000006,,,,,,,,,,,,,,,,,,,,,,,,,,,,,,,,,53.44061140000008,53.45427960000006,53.45427960000006,53.45427960000006,53.74016280000001,53.74040530000002,53.75426279999988,53.75426279999988,53.75426279999988,54.04030089999992,53.75426279999988,53.75426279999988,53.75426279999988,54.054182099999935,54.054182099999935,54.054182099999935,,,,,,,749084,001,2025-03-20_16h34.18.605,Estimulo_ICE,2024.2.4,60.211873540652185,2025-03-20 16h34.27.040791 -0300,
Estimulo_12,17,17,0,2.2,-2.2,-2.2,2.2,2.79999999999998,-2.79999999999998,2.79999999999998,-2.79999999999998,0,2,2,11,,,,,,,,,,,,,,,,,,,,,,,,,,,,,,,,,,,,,,,,,,,,,0,17,17,17,54.054182099999935,,,,,,,,,,,,,,,,,,,,,,,,,,,,,,,,,54.04065710000009,54.054182099999935,54.054182099999935,54.054182099999935,54.340130300000055,54.34037250000006,54.3542723999999,54.3542723999999,54.3542723999999,54.64024549999999,54.3542723999999,54.3542723999999,54.3542723999999,54.654147400000056,54.654147400000056,54.654147400000056,,,,,,,749084,001,2025-03-20_16h34.18.605,Estimulo_ICE,2024.2.4,60.211873540652185,2025-03-20 16h34.27.040791 -0300,
Estimulo_12,18,18,0,2.2,-2.2,-2.2,2.2,2.89999999999998,-2.89999999999998,2.89999999999998,-2.89999999999998,0,2,2,11,,,,,,,,,,,,,,,,,,,,,,,,,,,,,,,,,,,,,,,,,,,,,0,18,18,18,54.654147400000056,,,,,,,,,,,,,,,,,,,,,,,,,,,,,,,,,54.640605699999924,54.654147400000056,54.654147400000056,54.654147400000056,54.940224400000034,54.94046400000002,54.95426259999999,54.95426259999999,54.95426259999999,55.240088300000025,54.95426259999999,54.95426259999999,54.95426259999999,55.25425109999992,55.25425109999992,55.25425109999992,,,,,,,749084,001,2025-03-20_16h34.18.605,Estimulo_ICE,2024.2.4,60.211873540652185,2025-03-20 16h34.27.040791 -0300,
Estimulo_12,19,19,0,2.2,-2.2,-2.2,2.2,2.99999999999998,-2.99999999999998,2.99999999999998,-2.99999999999998,0,2,2,11,,,,,,,,,,,,,,,,,,,,,,,,,,,,,,,,,,,,,,,,,,,,,0,19,19,19,55.25425109999992,,,,,,,,,,,,,,,,,,,,,,,,,,,,,,,,,55.24045090000004,55.25425109999992,55.25425109999992,55.25425109999992,55.54020629999991,55.540446400000064,55.554076200000054,55.554076200000054,55.554076200000054,55.84020639999994,55.554076200000054,55.554076200000054,55.554076200000054,55.854164699999956,55.854164699999956,55.854164699999956,,,,,,,749084,001,2025-03-20_16h34.18.605,Estimulo_ICE,2024.2.4,60.211873540652185,2025-03-20 16h34.27.040791 -0300,
Estimulo_12,20,20,0,2.2,-2.2,-2.2,2.2,3.09999999999998,-3.09999999999998,3.09999999999998,-3.09999999999998,0,2,2,11,,,,,,,,,,,,,,,,,,,,,,,,,,,,,,,,,,,,,,,,,,,,,0,20,20,20,55.854164699999956,,,,,,,,,,,,,,,,,,,,,,,,,,,,,,,,,55.840563100000054,55.854164699999956,55.854164699999956,55.854164699999956,56.140254599999935,56.14049840000007,56.15416159999995,56.15416159999995,56.15416159999995,56.44043829999987,56.15416159999995,56.15416159999995,56.15416159999995,56.45426819999989,56.45426819999989,56.45426819999989,,,,,,,749084,001,2025-03-20_16h34.18.605,Estimulo_ICE,2024.2.4,60.211873540652185,2025-03-20 16h34.27.040791 -0300,
Estimulo_12,21,21,0,2.2,-2.2,-2.2,2.2,3.19999999999998,-3.19999999999998,3.19999999999998,-3.19999999999998,0,2,2,11,,,,,,,,,,,,,,,,,,,,,,,,,,,,,,,,,,,,,,,,,,,,,0,21,21,21,56.45426819999989,,,,,,,,,,,,,,,,,,,,,,,,,,,,,,,,,56.440800599999875,56.45426819999989,56.45426819999989,56.45426819999989,56.74019520000002,56.74043729999994,56.75427609999997,56.75427609999997,56.75427609999997,57.04016039999988,56.75427609999997,56.75427609999997,56.75427609999997,57.05424560000006,57.05424560000006,57.05424560000006,,,,,,,749084,001,2025-03-20_16h34.18.605,Estimulo_ICE,2024.2.4,60.211873540652185,2025-03-20 16h34.27.040791 -0300,
Estimulo_12,22,22,0,2.2,-2.2,-2.2,2.2,3.29999999999998,-3.29999999999998,3.29999999999998,-3.29999999999998,0,2,2,11,,,,,,,,,,,,,,,,,,,,,,,,,,,,,,,,,,,,,,,,,,,,,0,22,22,22,57.05424560000006,,,,,,,,,,,,,,,,,,,,,,,,,,,,,,,,,57.04051830000003,57.05424560000006,57.05424560000006,57.05424560000006,57.34019080000007,57.34043429999997,57.35412760000008,57.35412760000008,57.35412760000008,57.64031479999994,57.35412760000008,57.35412760000008,57.35412760000008,57.65411479999989,57.65411479999989,57.65411479999989,,,,,,,749084,001,2025-03-20_16h34.18.605,Estimulo_ICE,2024.2.4,60.211873540652185,2025-03-20 16h34.27.040791 -0300,
Estimulo_12,23,23,0,2.2,-2.2,-2.2,2.2,3.39999999999998,-3.39999999999998,3.39999999999998,-3.39999999999998,0,2,2,11,,,,,,,,,,,,,,,,,,,,,,,,,,,,,,,,,,,,,,,,,,,,,0,23,23,23,57.65411479999989,,,,,,,,,,,,,,,,,,,,,,,,,,,,,,,,,57.64067690000002,57.65411479999989,57.65411479999989,57.65411479999989,57.9401355,57.94037830000002,57.95426789999988,57.95426789999988,57.95426789999988,58.24020109999992,57.95426789999988,57.95426789999988,57.95426789999988,58.2541968999999,58.2541968999999,58.2541968999999,,,,,,,749084,001,2025-03-20_16h34.18.605,Estimulo_ICE,2024.2.4,60.211873540652185,2025-03-20 16h34.27.040791 -0300,
Estimulo_12,24,24,0,2.2,-2.2,-2.2,2.2,3.49999999999998,-3.49999999999998,3.49999999999998,-3.49999999999998,0,2,2,11,,,,,,,,,,,,,,,,,,,,,,,,,,,,,,,,,,,,,,,,,,,,,0,24,24,24,58.2541968999999,,,,,,,,,,,,,,,,,,,,,,,,,,,,,,,,,58.240559300000086,58.2541968999999,58.2541968999999,58.2541968999999,58.54016969999998,58.54040979999991,58.55422559999988,58.55422559999988,58.55422559999988,58.840288599999894,58.55422559999988,58.55422559999988,58.55422559999988,58.85420309999995,58.85420309999995,58.85420309999995,,,,,,,749084,001,2025-03-20_16h34.18.605,Estimulo_ICE,2024.2.4,60.211873540652185,2025-03-20 16h34.27.040791 -0300,
Estimulo_12,25,25,0,2.2,-2.2,-2.2,2.2,3.59999999999998,-3.59999999999998,3.59999999999998,-3.59999999999998,0,2,2,11,,,,,,,,,,,,,,,,,,,,,,,,,,,,,,,,,,,,,,,,,,,,,0,25,25,25,58.85420309999995,,,,,,,,,,,,,,,,,,,,,,,,,,,,,,,,,58.84064809999995,58.85420309999995,58.85420309999995,58.85420309999995,59.140029299999924,59.1402536999999,59.154220399999986,59.154220399999986,59.154220399999986,59.43999839999992,59.154220399999986,59.154220399999986,59.154220399999986,59.45427259999997,59.45427259999997,59.45427259999997,,,,,,,749084,001,2025-03-20_16h34.18.605,Estimulo_ICE,2024.2.4,60.211873540652185,2025-03-20 16h34.27.040791 -0300,
Estimulo_12,26,26,0,2.2,-2.2,-2.2,2.2,3.69999999999998,-3.69999999999998,3.69999999999998,-3.69999999999998,0,2,2,11,,,,,,,,,,,,,,,,,,,,,,,,,,,,,,,,,,,,,,,,,,,,,0,26,26,26,59.45427259999997,,,,,,,,,,,,,,,,,,,,,,,,,,,,,,,,,59.440363899999966,59.45427259999997,59.45427259999997,59.45427259999997,59.741400200000044,59.74164289999999,59.754097699999875,59.754097699999875,59.754097699999875,60.040066600000046,59.754097699999875,59.754097699999875,59.754097699999875,60.05420589999994,60.05420589999994,60.05420589999994,,,,,,,749084,001,2025-03-20_16h34.18.605,Estimulo_ICE,2024.2.4,60.211873540652185,2025-03-20 16h34.27.040791 -0300,
Estimulo_12,27,27,0,2.2,-2.2,-2.2,2.2,3.79999999999998,-3.79999999999998,3.79999999999998,-3.79999999999998,0,2,2,11,,,,,,,,,,,,,,,,,,,,,,,,,,,,,,,,,,,,,,,,,,,,,0,27,27,27,60.05420589999994,,,,,,,,,,,,,,,,,,,,,,,,,,,,,,,,,60.040421700000024,60.05420589999994,60.05420589999994,60.05420589999994,60.34015700000009,60.3404000999999,60.354103699999996,60.354103699999996,60.354103699999996,60.64014380000003,60.354103699999996,60.354103699999996,60.354103699999996,60.65418819999991,60.65418819999991,60.65418819999991,,,,,,,749084,001,2025-03-20_16h34.18.605,Estimulo_ICE,2024.2.4,60.211873540652185,2025-03-20 16h34.27.040791 -0300,
Estimulo_12,28,28,0,2.2,-2.2,-2.2,2.2,3.89999999999998,-3.89999999999998,3.89999999999998,-3.89999999999998,0,2,2,11,,,,,,,,,,,,,,,,,,,,,,,,,,,,,,,,,,,,,,,,,,,,,0,28,28,28,60.65418819999991,,,,,,,,,,,,,,,,,,,,,,,,,,,,,,,,,60.64050120000002,60.65418819999991,60.65418819999991,60.65418819999991,60.940130499999896,60.940370999999914,60.95431389999999,60.95431389999999,60.95431389999999,61.24007819999997,60.95431389999999,60.95431389999999,60.95431389999999,61.25419829999987,61.25419829999987,61.25419829999987,,,,,,,749084,001,2025-03-20_16h34.18.605,Estimulo_ICE,2024.2.4,60.211873540652185,2025-03-20 16h34.27.040791 -0300,
Estimulo_12,29,29,0,2.2,-2.2,-2.2,2.2,3.99999999999998,-3.99999999999998,3.99999999999998,-3.99999999999998,0,2,2,11,,,,,,,,,,,,,,,,,,,,,,,,,,,,,,,,,,,,,,,,,,,,,0,29,29,29,61.25419829999987,,,,,,,,,,,,,,,,,,,,,,,,,,,,,,,,,61.240436600000066,61.25419829999987,61.25419829999987,61.25419829999987,61.54005740000002,61.54029820000005,61.55419000000006,61.55419000000006,61.55419000000006,61.84014109999998,61.55419000000006,61.55419000000006,61.55419000000006,61.85418989999994,61.85418989999994,61.85418989999994,,,,,,,749084,001,2025-03-20_16h34.18.605,Estimulo_ICE,2024.2.4,60.211873540652185,2025-03-20 16h34.27.040791 -0300,
Estimulo_12,30,30,0,2.2,-2.2,-2.2,2.2,4.09999999999998,-4.09999999999998,4.09999999999998,-4.09999999999998,0,2,2,11,,,,,,,,,,,,,,,,,,,,,,,,,,,,,,,,,,,,,,,,,,,,,0,30,30,30,61.85418989999994,,,,,,,,,,,,,,,,,,,,,,,,,,,,,,,,,61.840497700000014,61.85418989999994,61.85418989999994,61.85418989999994,62.14021279999997,62.140455100000054,62.15400479999994,62.15400479999994,62.15400479999994,62.440180600000076,62.15400479999994,62.15400479999994,62.15400479999994,62.454279699999915,62.454279699999915,62.454279699999915,,,,,,,749084,001,2025-03-20_16h34.18.605,Estimulo_ICE,2024.2.4,60.211873540652185,2025-03-20 16h34.27.040791 -0300,
Estimulo_12,31,31,0,2.2,-2.2,-2.2,2.2,4.19999999999998,-4.19999999999998,4.19999999999998,-4.19999999999998,0,2,2,11,,,,,,,,,,,,,,,,,,,,,,,,,,,,,,,,,,,,,,,,,,,,,0,31,31,31,62.454279699999915,,,,,,,,,,,,,,,,,,,,,,,,,,,,,,,,,62.44054159999996,62.454279699999915,62.454279699999915,62.454279699999915,62.74009890000002,62.74034239999992,62.75417279999988,62.75417279999988,62.75417279999988,63.040119600000025,62.75417279999988,62.75417279999988,62.75417279999988,63.05417489999991,63.05417489999991,63.05417489999991,,,,,,,749084,001,2025-03-20_16h34.18.605,Estimulo_ICE,2024.2.4,60.211873540652185,2025-03-20 16h34.27.040791 -0300,
Estimulo_12,32,32,0,2.2,-2.2,-2.2,2.2,4.29999999999998,-4.29999999999998,4.29999999999998,-4.29999999999998,0,2,2,11,,,,,,,,,,,,,,,,,,,,,,,,,,,,,,,,,,,,,,,,,,,,,0,32,32,32,63.05417489999991,,,,,,,,,,,,,,,,,,,,,,,,,,,,,,,,,63.04047719999994,63.05417489999991,63.05417489999991,63.05417489999991,63.34395949999998,63.34450509999988,63.35549070000002,63.35549070000002,63.35549070000002,63.64369499999998,,,,,,,,,,,,,749084,001,2025-03-20_16h34.18.605,Estimulo_ICE,2024.2.4,60.211873540652185,2025-03-20 16h34.27.040791 -0300,
Estimulo_12,33,33,0,2.2,-2.2,-2.2,2.2,4.39999999999998,-4.39999999999998,4.39999999999998,-4.39999999999998,0,2,2,11,,,,,,,,,,,,,,,,,,,,,,,,,,,,,,,,,,,,,,,,,,,,,0,33,33,33,63.65532340000004,,,,,,,,,,,,,,,,,,,,,,,,,,,,,,,,,63.64450540000007,63.65532340000004,63.65532340000004,63.65532340000004,63.94406929999991,63.94460490000006,63.95544169999994,63.95544169999994,63.95544169999994,64.25618919999988,,,,,,,,,,,,,749084,001,2025-03-20_16h34.18.605,Estimulo_ICE,2024.2.4,60.211873540652185,2025-03-20 16h34.27.040791 -0300,
Estimulo_12,2,2,0,,,,,,,,,0,2,2,11,,,,,,,,,,,,,,,,,,,,,,,,,,,,,,,,,,,,,,,,,,,,,,,,,,,,,,,,,,,,,,,64.26093130000004,64.27094710000006,65.75642220000009,,,,,,,,,,,,,,,,,,,,,,,,,,,,,,,,,,,,,,,749084,001,2025-03-20_16h34.18.605,Estimulo_ICE,2024.2.4,60.211873540652185,2025-03-20 16h34.27.040791 -0300,
Estimulo_1,0,0,0,4.4,-4.4,4.4,-4.4,2.2,-2.2,-2.2,2.2,0,3,3,0,0,0,0,0,,,,,,,,,,,,,,,,,,,,,,,,,,,,,,,,,,,,,,,,,,,,,65.77084179999997,,65.75652969999987,65.75691269999993,65.76716310000006,65.77084179999997,65.77084179999997,65.77084179999997,66.05681800000002,66.05706179999993,66.07085389999997,66.07085389999997,66.07085389999997,66.35678430000007,,,,,,,,,,,,,,,,,,,,,,,,,,,,,,,,,,,,66.07085389999997,66.07085389999997,66.07085389999997,66.37086079999995,66.37086079999995,66.37086079999995,749084,001,2025-03-20_16h34.18.605,Estimulo_ICE,2024.2.4,60.211873540652185,2025-03-20 16h34.27.040791 -0300,
Estimulo_1,1,1,0,4.3,-4.3,4.3,-4.3,2.2,-2.2,-2.2,2.2,0,3,3,0,0,1,1,1,,,,,,,,,,,,,,,,,,,,,,,,,,,,,,,,,,,,,,,,,,,,,66.37086079999995,,,,66.35714639999992,66.37086079999995,66.37086079999995,66.37086079999995,66.65683160000003,66.65707369999996,66.67080759999999,66.67080759999999,66.67080759999999,66.9567568,,,,,,,,,,,,,,,,,,,,,,,,,,,,,,,,,,,,66.67080759999999,66.67080759999999,66.67080759999999,66.97082440000008,66.97082440000008,66.97082440000008,749084,001,2025-03-20_16h34.18.605,Estimulo_ICE,2024.2.4,60.211873540652185,2025-03-20 16h34.27.040791 -0300,
Estimulo_1,2,2,0,4.2,-4.2,4.2,-4.2,2.2,-2.2,-2.2,2.2,0,3,3,0,0,2,2,2,,,,,,,,,,,,,,,,,,,,,,,,,,,,,,,,,,,,,,,,,,,,,66.97082440000008,,,,66.95711759999995,66.97082440000008,66.97082440000008,66.97082440000008,67.25681230000009,67.2570538,67.2708118999999,67.2708118999999,67.2708118999999,67.55684339999993,,,,,,,,,,,,,,,,,,,,,,,,,,,,,,,,,,,,67.2708118999999,67.2708118999999,67.2708118999999,67.57084340000006,67.57084340000006,67.57084340000006,749084,001,2025-03-20_16h34.18.605,Estimulo_ICE,2024.2.4,60.211873540652185,2025-03-20 16h34.27.040791 -0300,
Estimulo_1,3,3,0,4.1,-4.1,4.1,-4.1,2.2,-2.2,-2.2,2.2,0,3,3,0,0,3,3,3,,,,,,,,,,,,,,,,,,,,,,,,,,,,,,,,,,,,,,,,,,,,,67.57084340000006,,,,67.5572044999999,67.57084340000006,67.57084340000006,67.57084340000006,67.85681849999992,67.8570592000001,67.8707930999999,67.8707930999999,67.8707930999999,68.15665609999996,,,,,,,,,,,,,,,,,,,,,,,,,,,,,,,,,,,,67.8707930999999,67.8707930999999,67.8707930999999,68.1708314,68.1708314,68.1708314,749084,001,2025-03-20_16h34.18.605,Estimulo_ICE,2024.2.4,60.211873540652185,2025-03-20 16h34.27.040791 -0300,
Estimulo_1,4,4,0,4,-4,4,-4,2.2,-2.2,-2.2,2.2,0,3,3,0,0,4,4,4,,,,,,,,,,,,,,,,,,,,,,,,,,,,,,,,,,,,,,,,,,,,,68.1708314,,,,68.15699440000003,68.1708314,68.1708314,68.1708314,68.45664809999994,68.45688990000008,68.47079759999997,68.47079759999997,68.47079759999997,68.75670549999995,,,,,,,,,,,,,,,,,,,,,,,,,,,,,,,,,,,,68.47079759999997,68.47079759999997,68.47079759999997,68.77086299999996,68.77086299999996,68.77086299999996,749084,001,2025-03-20_16h34.18.605,Estimulo_ICE,2024.2.4,60.211873540652185,2025-03-20 16h34.27.040791 -0300,
Estimulo_1,5,5,0,3.9,-3.9,3.9,-3.9,2.2,-2.2,-2.2,2.2,0,3,3,0,0,5,5,5,,,,,,,,,,,,,,,,,,,,,,,,,,,,,,,,,,,,,,,,,,,,,68.77086299999996,,,,68.75706360000004,68.77086299999996,68.77086299999996,68.77086299999996,69.05675939999992,69.05700239999987,69.07066540000005,69.07066540000005,69.07066540000005,69.35675489999994,,,,,,,,,,,,,,,,,,,,,,,,,,,,,,,,,,,,69.07066540000005,69.07066540000005,69.07066540000005,69.37083830000006,69.37083830000006,69.37083830000006,749084,001,2025-03-20_16h34.18.605,Estimulo_ICE,2024.2.4,60.211873540652185,2025-03-20 16h34.27.040791 -0300,
Estimulo_1,6,6,0,3.8,-3.8,3.8,-3.8,2.2,-2.2,-2.2,2.2,0,3,3,0,0,6,6,6,,,,,,,,,,,,,,,,,,,,,,,,,,,,,,,,,,,,,,,,,,,,,69.37083830000006,,,,69.35711620000006,69.37083830000006,69.37083830000006,69.37083830000006,69.65667600000006,69.65691620000007,69.67080209999995,69.67080209999995,69.67080209999995,69.95967919999998,,,,,,,,,,,,,,,,,,,,,,,,,,,,,,,,,,,,69.67080209999995,69.67080209999995,69.67080209999995,,,,749084,001,2025-03-20_16h34.18.605,Estimulo_ICE,2024.2.4,60.211873540652185,2025-03-20 16h34.27.040791 -0300,
Estimulo_1,7,7,0,3.7,-3.7,3.7,-3.7,2.2,-2.2,-2.2,2.2,0,3,3,0,0,7,7,7,,,,,,,,,,,,,,,,,,,,,,,,,,,,,,,,,,,,,,,,,,,,,69.97179959999994,,,,69.9604041,69.97179959999994,69.97179959999994,69.97179959999994,70.25721599999997,70.25752280000006,70.27113080000004,70.27113080000004,70.27113080000004,70.55731790000004,,,,,,,,,,,,,,,,,,,,,,,,,,,,,,,,,,,,,,,,,,749084,001,2025-03-20_16h34.18.605,Estimulo_ICE,2024.2.4,60.211873540652185,2025-03-20 16h34.27.040791 -0300,
Estimulo_1,8,8,0,3.6,-3.6,3.6,-3.6,2.2,-2.2,-2.2,2.2,0,3,3,0,0,8,8,8,,,,,,,,,,,,,,,,,,,,,,,,,,,,,,,,,,,,,,,,,,,,,70.57101829999988,,,,70.55778600000008,70.57101829999988,70.57101829999988,70.57101829999988,70.85720309999988,70.85751179999988,70.87100450000003,70.87100450000003,70.87100450000003,71.1570807999999,,,,,,,,,,,,,,,,,,,,,,,,,,,,,,,,,,,,,,,,,,749084,001,2025-03-20_16h34.18.605,Estimulo_ICE,2024.2.4,60.211873540652185,2025-03-20 16h34.27.040791 -0300,
Estimulo_1,9,9,0,3.5,-3.5,3.5,-3.5,2.2,-2.2,-2.2,2.2,0,3,3,0,0,9,9,9,,,,,,,,,,,,,,,,,,,,,,,,,,,,,,,,,,,,,,,,,,,,,71.17091690000007,,,,71.15754549999997,71.17091690000007,71.17091690000007,71.17091690000007,71.45722490000003,71.45753420000005,71.47097069999995,71.47097069999995,71.47097069999995,71.75739040000008,,,,,,,,,,,,,,,,,,,,,,,,,,,,,,,,,,,,,,,71.77093500000001,71.77093500000001,71.77093500000001,749084,001,2025-03-20_16h34.18.605,Estimulo_ICE,2024.2.4,60.211873540652185,2025-03-20 16h34.27.040791 -0300,
Estimulo_1,10,10,0,3.39999999999999,-3.39999999999999,3.39999999999999,-3.39999999999999,2.2,-2.2,-2.2,2.2,0,3,3,0,0,10,10,10,,,,,,,,,,,,,,,,,,,,,,,,,,,,,,,,,,,,,,,,,,,,,71.77093500000001,,,,71.75783249999995,71.77093500000001,71.77093500000001,71.77093500000001,72.05707159999997,72.05735709999999,72.0710251999999,72.0710251999999,72.0710251999999,72.35738960000003,,,,,,,,,,,,,,,,,,,,,,,,,,,,,,,,,,,,,,,72.37088139999992,72.37088139999992,72.37088139999992,749084,001,2025-03-20_16h34.18.605,Estimulo_ICE,2024.2.4,60.211873540652185,2025-03-20 16h34.27.040791 -0300,
Estimulo_1,11,11,0,3.29999999999999,-3.29999999999999,3.29999999999999,-3.29999999999999,2.2,-2.2,-2.2,2.2,0,3,3,0,0,11,11,11,,,,,,,,,,,,,,,,,,,,,,,,,,,,,,,,,,,,,,,,,,,,,72.37088139999992,,,,72.35783259999994,72.37088139999992,72.37088139999992,72.37088139999992,72.65735059999997,72.65764360000003,72.67092879999996,72.67092879999996,72.67092879999996,72.95708599999989,,,,,,,,,,,,,,,,,,,,,,,,,,,,,,,,,,,,72.67092879999996,72.67092879999996,72.67092879999996,,,,749084,001,2025-03-20_16h34.18.605,Estimulo_ICE,2024.2.4,60.211873540652185,2025-03-20 16h34.27.040791 -0300,
Estimulo_1,12,12,0,3.19999999999999,-3.19999999999999,3.19999999999999,-3.19999999999999,2.2,-2.2,-2.2,2.2,0,3,3,0,0,12,12,12,,,,,,,,,,,,,,,,,,,,,,,,,,,,,,,,,,,,,,,,,,,,,72.97075969999992,,,,72.95752049999987,72.97075969999992,72.97075969999992,72.97075969999992,73.25729870000009,73.25759249999987,73.27092560000006,73.27092560000006,73.27092560000006,73.55733559999999,,,,,,,,,,,,,,,,,,,,,,,,,,,,,,,,,,,,73.27092560000006,73.27092560000006,73.27092560000006,73.5709468,73.5709468,73.5709468,749084,001,2025-03-20_16h34.18.605,Estimulo_ICE,2024.2.4,60.211873540652185,2025-03-20 16h34.27.040791 -0300,
Estimulo_1,13,13,0,3.09999999999999,-3.09999999999999,3.09999999999999,-3.09999999999999,2.2,-2.2,-2.2,2.2,0,3,3,0,0,13,13,13,,,,,,,,,,,,,,,,,,,,,,,,,,,,,,,,,,,,,,,,,,,,,73.5709468,,,,73.55777340000009,73.5709468,73.5709468,73.5709468,73.85671619999994,73.85695620000001,73.87066909999999,73.87066909999999,73.87066909999999,74.15652690000002,,,,,,,,,,,,,,,,,,,,,,,,,,,,,,,,,,,,73.87066909999999,73.87066909999999,73.87066909999999,74.17077339999992,74.17077339999992,74.17077339999992,749084,001,2025-03-20_16h34.18.605,Estimulo_ICE,2024.2.4,60.211873540652185,2025-03-20 16h34.27.040791 -0300,
Estimulo_1,14,14,0,2.99999999999999,-2.99999999999999,2.99999999999999,-2.99999999999999,2.2,-2.2,-2.2,2.2,0,3,3,0,0,14,14,14,,,,,,,,,,,,,,,,,,,,,,,,,,,,,,,,,,,,,,,,,,,,,74.17077339999992,,,,74.15690500000005,74.17077339999992,74.17077339999992,74.17077339999992,74.45675129999995,74.45699379999996,74.47074950000001,74.47074950000001,74.47074950000001,74.75663519999989,,,,,,,,,,,,,,,,,,,,,,,,,,,,,,,,,,,,74.47074950000001,74.47074950000001,74.47074950000001,74.7707195999999,74.7707195999999,74.7707195999999,749084,001,2025-03-20_16h34.18.605,Estimulo_ICE,2024.2.4,60.211873540652185,2025-03-20 16h34.27.040791 -0300,
Estimulo_1,15,15,0,2.89999999999999,-2.89999999999999,2.89999999999999,-2.89999999999999,2.2,-2.2,-2.2,2.2,0,3,3,0,0,15,15,15,,,,,,,,,,,,,,,,,,,,,,,,,,,,,,,,,,,,,,,,,,,,,74.7707195999999,,,,74.7569966000001,74.7707195999999,74.7707195999999,74.7707195999999,75.05672249999998,75.05696269999999,75.0708459,75.0708459,75.0708459,75.35673769999994,,,,,,,,,,,,,,,,,,,,,,,,,,,,,,,,,,,,75.0708459,75.0708459,75.0708459,75.37070870000002,75.37070870000002,75.37070870000002,749084,001,2025-03-20_16h34.18.605,Estimulo_ICE,2024.2.4,60.211873540652185,2025-03-20 16h34.27.040791 -0300,
Estimulo_1,16,16,0,2.79999999999999,-2.79999999999999,2.79999999999999,-2.79999999999999,2.2,-2.2,-2.2,2.2,0,3,3,0,0,16,16,16,,,,,,,,,,,,,,,,,,,,,,,,,,,,,,,,,,,,,,,,,,,,,75.37070870000002,,,,75.35710119999999,75.37070870000002,75.37070870000002,75.37070870000002,75.65673549999997,75.65697619999992,75.67076870000005,75.67076870000005,75.67076870000005,75.95656170000007,,,,,,,,,,,,,,,,,,,,,,,,,,,,,,,,,,,,75.67076870000005,75.67076870000005,75.67076870000005,75.97082240000009,75.97082240000009,75.97082240000009,749084,001,2025-03-20_16h34.18.605,Estimulo_ICE,2024.2.4,60.211873540652185,2025-03-20 16h34.27.040791 -0300,
Estimulo_1,17,17,0,2.69999999999999,-2.69999999999999,2.69999999999999,-2.69999999999999,2.2,-2.2,-2.2,2.2,0,3,3,0,0,17,17,17,,,,,,,,,,,,,,,,,,,,,,,,,,,,,,,,,,,,,,,,,,,,,75.97082240000009,,,,75.9569246000001,75.97082240000009,75.97082240000009,75.97082240000009,76.25669549999998,76.25693969999998,76.27063199999998,76.27063199999998,76.27063199999998,76.55669599999987,,,,,,,,,,,,,,,,,,,,,,,,,,,,,,,,,,,,76.27063199999998,76.27063199999998,76.27063199999998,76.57063289999996,76.57063289999996,76.57063289999996,749084,001,2025-03-20_16h34.18.605,Estimulo_ICE,2024.2.4,60.211873540652185,2025-03-20 16h34.27.040791 -0300,
Estimulo_1,18,18,0,2.59999999999999,-2.59999999999999,2.59999999999999,-2.59999999999999,2.2,-2.2,-2.2,2.2,0,3,3,0,0,18,18,18,,,,,,,,,,,,,,,,,,,,,,,,,,,,,,,,,,,,,,,,,,,,,76.57063289999996,,,,76.55705740000008,76.57063289999996,76.57063289999996,76.57063289999996,76.85669099999996,76.85693279999987,76.87061049999988,76.87061049999988,76.87061049999988,77.15666570000008,,,,,,,,,,,,,,,,,,,,,,,,,,,,,,,,,,,,76.87061049999988,76.87061049999988,76.87061049999988,77.17064499999992,77.17064499999992,77.17064499999992,749084,001,2025-03-20_16h34.18.605,Estimulo_ICE,2024.2.4,60.211873540652185,2025-03-20 16h34.27.040791 -0300,
Estimulo_1,19,19,0,2.49999999999999,-2.49999999999999,2.49999999999999,-2.49999999999999,2.2,-2.2,-2.2,2.2,0,3,3,0,0,19,19,19,,,,,,,,,,,,,,,,,,,,,,,,,,,,,,,,,,,,,,,,,,,,,77.17064499999992,,,,77.15700829999992,77.17064499999992,77.17064499999992,77.17064499999992,77.46039539999992,77.46092879999992,77.47170320000009,77.47170320000009,77.47170320000009,77.76010389999988,,,,,,,,,,,,,,,,,,,,,,,,,,,,,,,,,,,,,,,,,,749084,001,2025-03-20_16h34.18.605,Estimulo_ICE,2024.2.4,60.211873540652185,2025-03-20 16h34.27.040791 -0300,
Estimulo_1,20,20,0,2.39999999999999,-2.39999999999999,2.39999999999999,-2.39999999999999,2.2,-2.2,-2.2,2.2,0,3,3,0,0,20,20,20,,,,,,,,,,,,,,,,,,,,,,,,,,,,,,,,,,,,,,,,,,,,,77.7720632999999,,,,77.76092410000001,77.7720632999999,77.7720632999999,77.7720632999999,78.0606378,78.06118020000008,78.07197870000005,78.07197870000005,78.07197870000005,78.35727500000007,,,,,,,,,,,,,,,,,,,,,,,,,,,,,,,,,,,,,,,,,,749084,001,2025-03-20_16h34.18.605,Estimulo_ICE,2024.2.4,60.211873540652185,2025-03-20 16h34.27.040791 -0300,
Estimulo_1,21,21,0,2.29999999999999,-2.29999999999999,2.29999999999999,-2.29999999999999,2.2,-2.2,-2.2,2.2,0,3,3,0,0,21,21,21,,,,,,,,,,,,,,,,,,,,,,,,,,,,,,,,,,,,,,,,,,,,,78.37109650000002,,,,78.35776370000008,78.37109650000002,78.37109650000002,78.37109650000002,78.65714989999992,78.6574685999999,78.67100110000001,78.67100110000001,78.67100110000001,78.95672439999998,,,,,,,,,,,,,,,,,,,,,,,,,,,,,,,,,,,,,,,78.9707378999999,78.9707378999999,78.9707378999999,749084,001,2025-03-20_16h34.18.605,Estimulo_ICE,2024.2.4,60.211873540652185,2025-03-20 16h34.27.040791 -0300,
Estimulo_1,22,22,0,2.19999999999999,-2.19999999999999,2.19999999999999,-2.19999999999999,2.2,-2.2,-2.2,2.2,0,3,3,0,0,22,22,22,,,,,,,,,,,,,,,,,,,,,,,,,,,,,,,,,,,,,,,,,,,,,78.9707378999999,,,,78.95709549999992,78.9707378999999,78.9707378999999,78.9707378999999,79.25663329999998,79.25687549999998,79.27075930000001,79.27075930000001,79.27075930000001,79.5566976,,,,,,,,,,,,,,,,,,,,,,,,,,,,,,,,,,,,79.27075930000001,79.27075930000001,79.27075930000001,79.57065119999993,79.57065119999993,79.57065119999993,749084,001,2025-03-20_16h34.18.605,Estimulo_ICE,2024.2.4,60.211873540652185,2025-03-20 16h34.27.040791 -0300,
Estimulo_1,23,23,0,2.09999999999999,-2.09999999999999,2.09999999999999,-2.09999999999999,2.2,-2.2,-2.2,2.2,0,3,3,0,0,23,23,23,,,,,,,,,,,,,,,,,,,,,,,,,,,,,,,,,,,,,,,,,,,,,79.57065119999993,,,,79.55705899999998,79.57065119999993,79.57065119999993,79.57065119999993,79.85667450000005,79.8569156000001,79.87071650000007,79.87071650000007,79.87071650000007,80.15642439999988,,,,,,,,,,,,,,,,,,,,,,,,,,,,,,,,,,,,79.87071650000007,79.87071650000007,79.87071650000007,80.17049969999994,80.17049969999994,80.17049969999994,749084,001,2025-03-20_16h34.18.605,Estimulo_ICE,2024.2.4,60.211873540652185,2025-03-20 16h34.27.040791 -0300,
Estimulo_1,24,24,0,1.99999999999999,-1.99999999999999,1.99999999999999,-1.99999999999999,2.2,-2.2,-2.2,2.2,0,3,3,0,0,24,24,24,,,,,,,,,,,,,,,,,,,,,,,,,,,,,,,,,,,,,,,,,,,,,80.17049969999994,,,,80.15679079999995,80.17049969999994,80.17049969999994,80.17049969999994,80.45653379999999,80.45677709999995,80.47073120000005,80.47073120000005,80.47073120000005,80.75667730000009,,,,,,,,,,,,,,,,,,,,,,,,,,,,,,,,,,,,80.47073120000005,80.47073120000005,80.47073120000005,80.77082990000008,80.77082990000008,80.77082990000008,749084,001,2025-03-20_16h34.18.605,Estimulo_ICE,2024.2.4,60.211873540652185,2025-03-20 16h34.27.040791 -0300,
Estimulo_1,25,25,0,1.89999999999999,-1.89999999999999,1.89999999999999,-1.89999999999999,2.2,-2.2,-2.2,2.2,0,3,3,0,0,25,25,25,,,,,,,,,,,,,,,,,,,,,,,,,,,,,,,,,,,,,,,,,,,,,80.77082990000008,,,,80.75704760000008,80.77082990000008,80.77082990000008,80.77082990000008,81.05666189999988,81.05690000000004,81.07075940000004,81.07075940000004,81.07075940000004,81.35666450000008,,,,,,,,,,,,,,,,,,,,,,,,,,,,,,,,,,,,81.07075940000004,81.07075940000004,81.07075940000004,81.37067000000002,81.37067000000002,81.37067000000002,749084,001,2025-03-20_16h34.18.605,Estimulo_ICE,2024.2.4,60.211873540652185,2025-03-20 16h34.27.040791 -0300,
Estimulo_1,26,26,0,1.79999999999999,-1.79999999999999,1.79999999999999,-1.79999999999999,2.2,-2.2,-2.2,2.2,0,3,3,0,0,26,26,26,,,,,,,,,,,,,,,,,,,,,,,,,,,,,,,,,,,,,,,,,,,,,81.37067000000002,,,,81.35702919999994,81.37067000000002,81.37067000000002,81.37067000000002,81.65668370000003,81.6569262999999,81.6705892,81.6705892,81.6705892,81.95650339999997,,,,,,,,,,,,,,,,,,,,,,,,,,,,,,,,,,,,81.6705892,81.6705892,81.6705892,81.97059480000007,81.97059480000007,81.97059480000007,749084,001,2025-03-20_16h34.18.605,Estimulo_ICE,2024.2.4,60.211873540652185,2025-03-20 16h34.27.040791 -0300,
Estimulo_1,27,27,0,1.69999999999999,-1.69999999999999,1.69999999999999,-1.69999999999999,2.2,-2.2,-2.2,2.2,0,3,3,0,0,27,27,27,,,,,,,,,,,,,,,,,,,,,,,,,,,,,,,,,,,,,,,,,,,,,81.97059480000007,,,,81.95687120000002,81.97059480000007,81.97059480000007,81.97059480000007,82.25657690000003,82.25681559999998,82.27071290000004,82.27071290000004,82.27071290000004,82.55646320000005,,,,,,,,,,,,,,,,,,,,,,,,,,,,,,,,,,,,82.27071290000004,82.27071290000004,82.27071290000004,82.5707273999999,82.5707273999999,82.5707273999999,749084,001,2025-03-20_16h34.18.605,Estimulo_ICE,2024.2.4,60.211873540652185,2025-03-20 16h34.27.040791 -0300,
Estimulo_1,28,28,0,1.59999999999999,-1.59999999999999,1.59999999999999,-1.59999999999999,2.2,-2.2,-2.2,2.2,0,3,3,0,0,28,28,28,,,,,,,,,,,,,,,,,,,,,,,,,,,,,,,,,,,,,,,,,,,,,82.5707273999999,,,,82.55682150000007,82.5707273999999,82.5707273999999,82.5707273999999,82.85652249999998,82.85676579999995,82.87068169999998,82.87068169999998,82.87068169999998,83.15630179999994,,,,,,,,,,,,,,,,,,,,,,,,,,,,,,,,,,,,82.87068169999998,82.87068169999998,82.87068169999998,83.17078390000006,83.17078390000006,83.17078390000006,749084,001,2025-03-20_16h34.18.605,Estimulo_ICE,2024.2.4,60.211873540652185,2025-03-20 16h34.27.040791 -0300,
Estimulo_1,29,29,0,1.49999999999999,-1.49999999999998,1.49999999999999,-1.49999999999998,2.2,-2.2,-2.2,2.2,0,3,3,0,0,29,29,29,,,,,,,,,,,,,,,,,,,,,,,,,,,,,,,,,,,,,,,,,,,,,83.17078390000006,,,,83.15663700000005,83.17078390000006,83.17078390000006,83.17078390000006,83.45663360000003,83.45687520000001,83.47067809999999,83.47067809999999,83.47067809999999,83.75666010000009,,,,,,,,,,,,,,,,,,,,,,,,,,,,,,,,,,,,83.47067809999999,83.47067809999999,83.47067809999999,83.77071019999994,83.77071019999994,83.77071019999994,749084,001,2025-03-20_16h34.18.605,Estimulo_ICE,2024.2.4,60.211873540652185,2025-03-20 16h34.27.040791 -0300,
Estimulo_1,30,30,0,1.39999999999999,-1.39999999999998,1.39999999999999,-1.39999999999998,2.2,-2.2,-2.2,2.2,0,3,3,0,0,30,30,30,,,,,,,,,,,,,,,,,,,,,,,,,,,,,,,,,,,,,,,,,,,,,83.77071019999994,,,,83.75702269999988,83.77071019999994,83.77071019999994,83.77071019999994,84.05658889999995,84.05682899999988,84.0707210999999,84.0707210999999,84.0707210999999,84.35656130000007,,,,,,,,,,,,,,,,,,,,,,,,,,,,,,,,,,,,84.0707210999999,84.0707210999999,84.0707210999999,84.37077550000004,84.37077550000004,84.37077550000004,749084,001,2025-03-20_16h34.18.605,Estimulo_ICE,2024.2.4,60.211873540652185,2025-03-20 16h34.27.040791 -0300,
Estimulo_1,31,31,0,1.29999999999999,-1.29999999999998,1.29999999999999,-1.29999999999998,2.2,-2.2,-2.2,2.2,0,3,3,0,0,31,31,31,,,,,,,,,,,,,,,,,,,,,,,,,,,,,,,,,,,,,,,,,,,,,84.37077550000004,,,,84.35692070000005,84.37077550000004,84.37077550000004,84.37077550000004,84.65658819999999,84.65682659999993,84.67070820000004,84.67070820000004,84.67070820000004,84.95670649999988,,,,,,,,,,,,,,,,,,,,,,,,,,,,,,,,,,,,84.67070820000004,84.67070820000004,84.67070820000004,84.97070179999992,84.97070179999992,84.97070179999992,749084,001,2025-03-20_16h34.18.605,Estimulo_ICE,2024.2.4,60.211873540652185,2025-03-20 16h34.27.040791 -0300,
Estimulo_1,32,32,0,1.19999999999999,-1.19999999999998,1.19999999999999,-1.19999999999998,2.2,-2.2,-2.2,2.2,0,3,3,0,0,32,32,32,,,,,,,,,,,,,,,,,,,,,,,,,,,,,,,,,,,,,,,,,,,,,84.97070179999992,,,,84.95706810000001,84.97070179999992,84.97070179999992,84.97070179999992,85.26301390000003,85.2637459,85.27283149999994,85.27283149999994,85.27283149999994,85.55708099999993,,,,,,,,,,,,,,,,,,,,,,,,,,,,,,,,,,,,,,,,,,749084,001,2025-03-20_16h34.18.605,Estimulo_ICE,2024.2.4,60.211873540652185,2025-03-20 16h34.27.040791 -0300,
Estimulo_1,33,33,0,1.09999999999999,-1.09999999999998,1.09999999999999,-1.09999999999998,2.2,-2.2,-2.2,2.2,0,3,3,0,0,33,33,33,,,,,,,,,,,,,,,,,,,,,,,,,,,,,,,,,,,,,,,,,,,,,85.57098229999997,,,,85.55755490000001,85.57098229999997,85.57098229999997,85.57098229999997,85.85707639999987,85.85738279999987,85.87085389999993,85.87085389999993,85.87085389999993,86.15642559999992,,,,,,,,,,,,,,,,,,,,,,,,,,,,,,,,,,,,,,,86.21993909999992,86.21993909999992,86.21993909999992,749084,001,2025-03-20_16h34.18.605,Estimulo_ICE,2024.2.4,60.211873540652185,2025-03-20 16h34.27.040791 -0300,
Estimulo_1,0,0,0,4.4,-4.4,4.4,-4.4,2.2,-2.2,-2.2,2.2,0,3,3,0,,,,,,,,,,,,,,,,,0,0,0,0,,,,,,,,,,,,,,,,,,,,,,,,,,,,,86.21993909999992,,,,,,,,,,,,,,,,,86.20654799999988,86.21993909999992,86.21993909999992,86.21993909999992,86.46160059999988,86.46222710000006,86.47216639999988,86.47216639999988,86.47216639999988,,,,86.7613386999999,,,,,,,,,,,,,,,,,,,,,,,,,,749084,001,2025-03-20_16h34.18.605,Estimulo_ICE,2024.2.4,60.211873540652185,2025-03-20 16h34.27.040791 -0300,
Estimulo_1,1,1,0,4.3,-4.3,4.3,-4.3,2.2,-2.2,-2.2,2.2,0,3,3,0,,,,,,,,,,,,,,,,,0,1,1,1,,,,,,,,,,,,,,,,,,,,,,,,,,,,,86.77224189999993,,,,,,,,,,,,,,,,,86.76229699999999,86.77224189999993,86.77224189999993,86.77224189999993,87.0581459,87.05853139999999,87.07130119999988,87.07130119999988,87.07130119999988,87.37051889999998,87.37051889999998,87.37051889999998,87.35683769999991,,,,,,,,,,,,,,,,,,,,,,,,,,749084,001,2025-03-20_16h34.18.605,Estimulo_ICE,2024.2.4,60.211873540652185,2025-03-20 16h34.27.040791 -0300,
Estimulo_1,2,2,0,4.2,-4.2,4.2,-4.2,2.2,-2.2,-2.2,2.2,0,3,3,0,,,,,,,,,,,,,,,,,0,2,2,2,,,,,,,,,,,,,,,,,,,,,,,,,,,,,87.37051889999998,,,,,,,,,,,,,,,,,87.35721760000001,87.37051889999998,87.37051889999998,87.37051889999998,87.65680449999991,87.65705939999998,87.67067989999987,87.67067989999987,87.67067989999987,87.97075870000003,87.97075870000003,87.97075870000003,87.95679700000005,87.67067989999987,87.67067989999987,87.67067989999987,,,,,,,,,,,,,,,,,,,,,,,749084,001,2025-03-20_16h34.18.605,Estimulo_ICE,2024.2.4,60.211873540652185,2025-03-20 16h34.27.040791 -0300,
Estimulo_1,3,3,0,4.1,-4.1,4.1,-4.1,2.2,-2.2,-2.2,2.2,0,3,3,0,,,,,,,,,,,,,,,,,0,3,3,3,,,,,,,,,,,,,,,,,,,,,,,,,,,,,87.97075870000003,,,,,,,,,,,,,,,,,87.9571762999999,87.97075870000003,87.97075870000003,87.97075870000003,88.25678049999988,88.25703750000002,88.27067549999992,88.27067549999992,88.27067549999992,88.57071530000007,88.57071530000007,88.57071530000007,88.55660480000006,88.27067549999992,88.27067549999992,88.27067549999992,,,,,,,,,,,,,,,,,,,,,,,749084,001,2025-03-20_16h34.18.605,Estimulo_ICE,2024.2.4,60.211873540652185,2025-03-20 16h34.27.040791 -0300,
Estimulo_1,4,4,0,4,-4,4,-4,2.2,-2.2,-2.2,2.2,0,3,3,0,,,,,,,,,,,,,,,,,0,4,4,4,,,,,,,,,,,,,,,,,,,,,,,,,,,,,88.57071530000007,,,,,,,,,,,,,,,,,88.55698600000005,88.57071530000007,88.57071530000007,88.57071530000007,88.8567849000001,88.85703829999989,88.87064770000006,88.87064770000006,88.87064770000006,89.1714763,89.1714763,89.1714763,89.15665869999998,88.87064770000006,88.87064770000006,88.87064770000006,,,,,,,,,,,,,,,,,,,,,,,749084,001,2025-03-20_16h34.18.605,Estimulo_ICE,2024.2.4,60.211873540652185,2025-03-20 16h34.27.040791 -0300,
Estimulo_1,5,5,0,3.9,-3.9,3.9,-3.9,2.2,-2.2,-2.2,2.2,0,3,3,0,,,,,,,,,,,,,,,,,0,5,5,5,,,,,,,,,,,,,,,,,,,,,,,,,,,,,89.1714763,,,,,,,,,,,,,,,,,89.15704630000005,89.1714763,89.1714763,89.1714763,89.45673639999995,89.45698870000001,89.4706099,89.4706099,89.4706099,89.77069170000004,89.77069170000004,89.77069170000004,89.75687960000005,89.4706099,89.4706099,89.4706099,,,,,,,,,,,,,,,,,,,,,,,749084,001,2025-03-20_16h34.18.605,Estimulo_ICE,2024.2.4,60.211873540652185,2025-03-20 16h34.27.040791 -0300,
Estimulo_1,6,6,0,3.8,-3.8,3.8,-3.8,2.2,-2.2,-2.2,2.2,0,3,3,0,,,,,,,,,,,,,,,,,0,6,6,6,,,,,,,,,,,,,,,,,,,,,,,,,,,,,89.77069170000004,,,,,,,,,,,,,,,,,89.75725719999991,89.77069170000004,89.77069170000004,89.77069170000004,90.05674989999989,90.05700320000005,90.07070019999992,90.07070019999992,90.07070019999992,90.37065370000005,90.37065370000005,90.37065370000005,90.3565478999999,90.07070019999992,90.07070019999992,90.07070019999992,,,,,,,,,,,,,,,,,,,,,,,749084,001,2025-03-20_16h34.18.605,Estimulo_ICE,2024.2.4,60.211873540652185,2025-03-20 16h34.27.040791 -0300,
Estimulo_1,7,7,0,3.7,-3.7,3.7,-3.7,2.2,-2.2,-2.2,2.2,0,3,3,0,,,,,,,,,,,,,,,,,0,7,7,7,,,,,,,,,,,,,,,,,,,,,,,,,,,,,90.37065370000005,,,,,,,,,,,,,,,,,90.35693109999988,90.37065370000005,90.37065370000005,90.37065370000005,90.65671410000004,90.65696789999993,90.67065619999994,90.67065619999994,90.67065619999994,90.97040190000007,90.97040190000007,90.97040190000007,90.95684419999998,90.67065619999994,90.67065619999994,90.67065619999994,,,,,,,,,,,,,,,,,,,,,,,749084,001,2025-03-20_16h34.18.605,Estimulo_ICE,2024.2.4,60.211873540652185,2025-03-20 16h34.27.040791 -0300,
Estimulo_1,8,8,0,3.6,-3.6,3.6,-3.6,2.2,-2.2,-2.2,2.2,0,3,3,0,,,,,,,,,,,,,,,,,0,8,8,8,,,,,,,,,,,,,,,,,,,,,,,,,,,,,90.97040190000007,,,,,,,,,,,,,,,,,90.95721849999995,90.97040190000007,90.97040190000007,90.97040190000007,91.25674630000003,91.25700269999993,91.27064659999996,91.27064659999996,91.27064659999996,91.57069430000001,91.57069430000001,91.57069430000001,91.55674649999992,91.27064659999996,91.27064659999996,91.27064659999996,,,,,,,,,,,,,,,,,,,,,,,749084,001,2025-03-20_16h34.18.605,Estimulo_ICE,2024.2.4,60.211873540652185,2025-03-20 16h34.27.040791 -0300,
Estimulo_1,9,9,0,3.5,-3.5,3.5,-3.5,2.2,-2.2,-2.2,2.2,0,3,3,0,,,,,,,,,,,,,,,,,0,9,9,9,,,,,,,,,,,,,,,,,,,,,,,,,,,,,91.57069430000001,,,,,,,,,,,,,,,,,91.55712560000006,91.57069430000001,91.57069430000001,91.57069430000001,91.85660269999994,91.85685760000001,91.87068240000008,91.87068240000008,91.87068240000008,92.1704224,92.1704224,92.1704224,92.15653079999993,91.87068240000008,91.87068240000008,91.87068240000008,,,,,,,,,,,,,,,,,,,,,,,749084,001,2025-03-20_16h34.18.605,Estimulo_ICE,2024.2.4,60.211873540652185,2025-03-20 16h34.27.040791 -0300,
Estimulo_1,10,10,0,3.39999999999999,-3.39999999999999,3.39999999999999,-3.39999999999999,2.2,-2.2,-2.2,2.2,0,3,3,0,,,,,,,,,,,,,,,,,0,10,10,10,,,,,,,,,,,,,,,,,,,,,,,,,,,,,92.1704224,,,,,,,,,,,,,,,,,92.15691519999996,92.1704224,92.1704224,92.1704224,92.45658980000007,92.45683000000008,92.47059259999992,92.47059259999992,92.47059259999992,92.7704581999999,92.7704581999999,92.7704581999999,92.75660709999988,92.47059259999992,92.47059259999992,92.47059259999992,,,,,,,,,,,,,,,,,,,,,,,749084,001,2025-03-20_16h34.18.605,Estimulo_ICE,2024.2.4,60.211873540652185,2025-03-20 16h34.27.040791 -0300,
Estimulo_1,11,11,0,3.29999999999999,-3.29999999999999,3.29999999999999,-3.29999999999999,2.2,-2.2,-2.2,2.2,0,3,3,0,,,,,,,,,,,,,,,,,0,11,11,11,,,,,,,,,,,,,,,,,,,,,,,,,,,,,92.7704581999999,,,,,,,,,,,,,,,,,92.75696870000002,92.7704581999999,92.7704581999999,92.7704581999999,93.05657550000001,93.05681559999994,93.07065119999993,93.07065119999993,93.07065119999993,93.37061990000007,93.37061990000007,93.37061990000007,93.35669030000008,93.07065119999993,93.07065119999993,93.07065119999993,,,,,,,,,,,,,,,,,,,,,,,749084,001,2025-03-20_16h34.18.605,Estimulo_ICE,2024.2.4,60.211873540652185,2025-03-20 16h34.27.040791 -0300,
Estimulo_1,12,12,0,3.19999999999999,-3.19999999999999,3.19999999999999,-3.19999999999999,2.2,-2.2,-2.2,2.2,0,3,3,0,,,,,,,,,,,,,,,,,0,12,12,12,,,,,,,,,,,,,,,,,,,,,,,,,,,,,93.37061990000007,,,,,,,,,,,,,,,,,93.35705699999994,93.37061990000007,93.37061990000007,93.37061990000007,93.65656029999991,93.65680109999994,93.67062250000004,93.67062250000004,93.67062250000004,93.97063490000005,93.97063490000005,93.97063490000005,93.9565035999999,93.67062250000004,93.67062250000004,93.67062250000004,,,,,,,,,,,,,,,,,,,,,,,749084,001,2025-03-20_16h34.18.605,Estimulo_ICE,2024.2.4,60.211873540652185,2025-03-20 16h34.27.040791 -0300,
Estimulo_1,13,13,0,3.09999999999999,-3.09999999999999,3.09999999999999,-3.09999999999999,2.2,-2.2,-2.2,2.2,0,3,3,0,,,,,,,,,,,,,,,,,0,13,13,13,,,,,,,,,,,,,,,,,,,,,,,,,,,,,93.97063490000005,,,,,,,,,,,,,,,,,93.95687029999999,93.97063490000005,93.97063490000005,93.97063490000005,94.25657350000006,94.25681480000003,94.27052219999996,94.27052219999996,94.27052219999996,94.57062889999997,94.57062889999997,94.57062889999997,94.55637690000003,94.27052219999996,94.27052219999996,94.27052219999996,,,,,,,,,,,,,,,,,,,,,,,749084,001,2025-03-20_16h34.18.605,Estimulo_ICE,2024.2.4,60.211873540652185,2025-03-20 16h34.27.040791 -0300,
Estimulo_1,14,14,0,2.99999999999999,-2.99999999999999,2.99999999999999,-2.99999999999999,2.2,-2.2,-2.2,2.2,0,3,3,0,,,,,,,,,,,,,,,,,0,14,14,14,,,,,,,,,,,,,,,,,,,,,,,,,,,,,94.57062889999997,,,,,,,,,,,,,,,,,94.55674219999992,94.57062889999997,94.57062889999997,94.57062889999997,94.85659190000001,94.85683249999988,94.87049890000003,94.87049890000003,94.87049890000003,95.17056969999999,95.17056969999999,95.17056969999999,95.15684420000002,94.87049890000003,94.87049890000003,94.87049890000003,,,,,,,,,,,,,,,,,,,,,,,749084,001,2025-03-20_16h34.18.605,Estimulo_ICE,2024.2.4,60.211873540652185,2025-03-20 16h34.27.040791 -0300,
Estimulo_1,15,15,0,2.89999999999999,-2.89999999999999,2.89999999999999,-2.89999999999999,2.2,-2.2,-2.2,2.2,0,3,3,0,,,,,,,,,,,,,,,,,0,15,15,15,,,,,,,,,,,,,,,,,,,,,,,,,,,,,95.17056969999999,,,,,,,,,,,,,,,,,95.15720439999996,95.17056969999999,95.17056969999999,95.17056969999999,95.45658980000007,95.4568311999999,95.4704890999999,95.4704890999999,95.4704890999999,95.77049199999988,95.77049199999988,95.77049199999988,95.75655319999987,95.4704890999999,95.4704890999999,95.4704890999999,,,,,,,,,,,,,,,,,,,,,,,749084,001,2025-03-20_16h34.18.605,Estimulo_ICE,2024.2.4,60.211873540652185,2025-03-20 16h34.27.040791 -0300,
Estimulo_1,16,16,0,2.79999999999999,-2.79999999999999,2.79999999999999,-2.79999999999999,2.2,-2.2,-2.2,2.2,0,3,3,0,,,,,,,,,,,,,,,,,0,16,16,16,,,,,,,,,,,,,,,,,,,,,,,,,,,,,95.77049199999988,,,,,,,,,,,,,,,,,95.75692009999989,95.77049199999988,95.77049199999988,95.77049199999988,96.05653200000006,96.05677379999997,96.0706381,96.0706381,96.0706381,96.37063839999996,96.37063839999996,96.37063839999996,96.35640480000006,96.0706381,96.0706381,96.0706381,,,,,,,,,,,,,,,,,,,,,,,749084,001,2025-03-20_16h34.18.605,Estimulo_ICE,2024.2.4,60.211873540652185,2025-03-20 16h34.27.040791 -0300,
Estimulo_1,17,17,0,2.69999999999999,-2.69999999999999,2.69999999999999,-2.69999999999999,2.2,-2.2,-2.2,2.2,0,3,3,0,,,,,,,,,,,,,,,,,0,17,17,17,,,,,,,,,,,,,,,,,,,,,,,,,,,,,96.37063839999996,,,,,,,,,,,,,,,,,96.35676799999987,96.37063839999996,96.37063839999996,96.37063839999996,96.65657119999992,96.65681449999988,96.67069779999997,96.67069779999997,96.67069779999997,96.97056410000005,96.97056410000005,96.97056410000005,96.95656299999996,96.67069779999997,96.67069779999997,96.67069779999997,,,,,,,,,,,,,,,,,,,,,,,749084,001,2025-03-20_16h34.18.605,Estimulo_ICE,2024.2.4,60.211873540652185,2025-03-20 16h34.27.040791 -0300,
Estimulo_1,18,18,0,2.59999999999999,-2.59999999999999,2.59999999999999,-2.59999999999999,2.2,-2.2,-2.2,2.2,0,3,3,0,,,,,,,,,,,,,,,,,0,18,18,18,,,,,,,,,,,,,,,,,,,,,,,,,,,,,96.97056410000005,,,,,,,,,,,,,,,,,96.95692660000009,96.97056410000005,96.97056410000005,96.97056410000005,97.2593460999999,97.25983739999992,97.27155919999996,97.27155919999996,97.27155919999996,97.57070099999987,97.57070099999987,97.57070099999987,97.55735950000008,,,,,,,,,,,,,,,,,,,,,,,,,,749084,001,2025-03-20_16h34.18.605,Estimulo_ICE,2024.2.4,60.211873540652185,2025-03-20 16h34.27.040791 -0300,
Estimulo_1,19,19,0,2.49999999999999,-2.49999999999999,2.49999999999999,-2.49999999999999,2.2,-2.2,-2.2,2.2,0,3,3,0,,,,,,,,,,,,,,,,,0,19,19,19,,,,,,,,,,,,,,,,,,,,,,,,,,,,,97.57070099999987,,,,,,,,,,,,,,,,,97.55782769999996,97.57070099999987,97.57070099999987,97.57070099999987,97.85737730000005,97.85768549999989,97.87086,97.87086,97.87086,98.17056739999998,98.17056739999998,98.17056739999998,98.1562687999999,97.87086,97.87086,97.87086,,,,,,,,,,,,,,,,,,,,,,,749084,001,2025-03-20_16h34.18.605,Estimulo_ICE,2024.2.4,60.211873540652185,2025-03-20 16h34.27.040791 -0300,
Estimulo_1,20,20,0,2.39999999999999,-2.39999999999999,2.39999999999999,-2.39999999999999,2.2,-2.2,-2.2,2.2,0,3,3,0,,,,,,,,,,,,,,,,,0,20,20,20,,,,,,,,,,,,,,,,,,,,,,,,,,,,,98.17056739999998,,,,,,,,,,,,,,,,,98.15661010000008,98.17056739999998,98.17056739999998,98.17056739999998,98.45656089999989,98.4568021,98.47040919999995,98.47040919999995,98.47040919999995,98.77058779999993,98.77058779999993,98.77058779999993,98.75652429999991,98.47040919999995,98.47040919999995,98.47040919999995,,,,,,,,,,,,,,,,,,,,,,,749084,001,2025-03-20_16h34.18.605,Estimulo_ICE,2024.2.4,60.211873540652185,2025-03-20 16h34.27.040791 -0300,
Estimulo_1,21,21,0,2.29999999999999,-2.29999999999999,2.29999999999999,-2.29999999999999,2.2,-2.2,-2.2,2.2,0,3,3,0,,,,,,,,,,,,,,,,,0,21,21,21,,,,,,,,,,,,,,,,,,,,,,,,,,,,,98.77058779999993,,,,,,,,,,,,,,,,,98.75688680000007,98.77058779999993,98.77058779999993,98.77058779999993,99.05644639999991,99.05668919999994,99.07068009999989,99.07068009999989,99.07068009999989,99.37062029999993,99.37062029999993,99.37062029999993,99.35634619999996,99.07068009999989,99.07068009999989,99.07068009999989,,,,,,,,,,,,,,,,,,,,,,,749084,001,2025-03-20_16h34.18.605,Estimulo_ICE,2024.2.4,60.211873540652185,2025-03-20 16h34.27.040791 -0300,
Estimulo_1,22,22,0,2.19999999999999,-2.19999999999999,2.19999999999999,-2.19999999999999,2.2,-2.2,-2.2,2.2,0,3,3,0,,,,,,,,,,,,,,,,,0,22,22,22,,,,,,,,,,,,,,,,,,,,,,,,,,,,,99.37062029999993,,,,,,,,,,,,,,,,,99.35671709999997,99.37062029999993,99.37062029999993,99.37062029999993,99.6565000999999,99.65673900000002,99.67056180000009,99.67056180000009,99.67056180000009,99.9706079,99.9706079,99.9706079,99.95646659999989,99.67056180000009,99.67056180000009,99.67056180000009,,,,,,,,,,,,,,,,,,,,,,,749084,001,2025-03-20_16h34.18.605,Estimulo_ICE,2024.2.4,60.211873540652185,2025-03-20 16h34.27.040791 -0300,
Estimulo_1,23,23,0,2.09999999999999,-2.09999999999999,2.09999999999999,-2.09999999999999,2.2,-2.2,-2.2,2.2,0,3,3,0,,,,,,,,,,,,,,,,,0,23,23,23,,,,,,,,,,,,,,,,,,,,,,,,,,,,,99.9706079,,,,,,,,,,,,,,,,,99.9568271999999,99.9706079,99.9706079,99.9706079,100.25631559999988,100.2565568,100.27070380000009,100.27070380000009,100.27070380000009,100.57046919999993,100.57046919999993,100.57046919999993,100.55646969999998,100.27070380000009,100.27070380000009,100.27070380000009,,,,,,,,,,,,,,,,,,,,,,,749084,001,2025-03-20_16h34.18.605,Estimulo_ICE,2024.2.4,60.211873540652185,2025-03-20 16h34.27.040791 -0300,
Estimulo_1,24,24,0,1.99999999999999,-1.99999999999999,1.99999999999999,-1.99999999999999,2.2,-2.2,-2.2,2.2,0,3,3,0,,,,,,,,,,,,,,,,,0,24,24,24,,,,,,,,,,,,,,,,,,,,,,,,,,,,,100.57046919999993,,,,,,,,,,,,,,,,,100.5568303,100.57046919999993,100.57046919999993,100.57046919999993,100.85653269999989,100.85677209999994,100.87052829999993,100.87052829999993,100.87052829999993,101.17051979999997,101.17051979999997,101.17051979999997,101.15633989999992,100.87052829999993,100.87052829999993,100.87052829999993,,,,,,,,,,,,,,,,,,,,,,,749084,001,2025-03-20_16h34.18.605,Estimulo_ICE,2024.2.4,60.211873540652185,2025-03-20 16h34.27.040791 -0300,
Estimulo_1,25,25,0,1.89999999999999,-1.89999999999999,1.89999999999999,-1.89999999999999,2.2,-2.2,-2.2,2.2,0,3,3,0,,,,,,,,,,,,,,,,,0,25,25,25,,,,,,,,,,,,,,,,,,,,,,,,,,,,,101.17051979999997,,,,,,,,,,,,,,,,,101.15670180000006,101.17051979999997,101.17051979999997,101.17051979999997,101.45656579999991,101.45680650000008,101.4706228,101.4706228,101.4706228,101.77054670000007,101.77054670000007,101.77054670000007,101.75651719999996,101.4706228,101.4706228,101.4706228,,,,,,,,,,,,,,,,,,,,,,,749084,001,2025-03-20_16h34.18.605,Estimulo_ICE,2024.2.4,60.211873540652185,2025-03-20 16h34.27.040791 -0300,
Estimulo_1,26,26,0,1.79999999999999,-1.79999999999999,1.79999999999999,-1.79999999999999,2.2,-2.2,-2.2,2.2,0,3,3,0,,,,,,,,,,,,,,,,,0,26,26,26,,,,,,,,,,,,,,,,,,,,,,,,,,,,,101.77054670000007,,,,,,,,,,,,,,,,,101.75687859999994,101.77054670000007,101.77054670000007,101.77054670000007,102.05649749999998,102.05673950000005,102.07056439999997,102.07056439999997,102.07056439999997,102.37057129999994,102.37057129999994,102.37057129999994,102.35630309999988,102.07056439999997,102.07056439999997,102.07056439999997,,,,,,,,,,,,,,,,,,,,,,,749084,001,2025-03-20_16h34.18.605,Estimulo_ICE,2024.2.4,60.211873540652185,2025-03-20 16h34.27.040791 -0300,
Estimulo_1,27,27,0,1.69999999999999,-1.69999999999999,1.69999999999999,-1.69999999999999,2.2,-2.2,-2.2,2.2,0,3,3,0,,,,,,,,,,,,,,,,,0,27,27,27,,,,,,,,,,,,,,,,,,,,,,,,,,,,,102.37057129999994,,,,,,,,,,,,,,,,,102.35666820000006,102.37057129999994,102.37057129999994,102.37057129999994,102.65652479999994,102.65676529999996,102.67064520000008,102.67064520000008,102.67064520000008,102.97052809999991,102.97052809999991,102.97052809999991,102.95654109999987,102.67064520000008,102.67064520000008,102.67064520000008,,,,,,,,,,,,,,,,,,,,,,,749084,001,2025-03-20_16h34.18.605,Estimulo_ICE,2024.2.4,60.211873540652185,2025-03-20 16h34.27.040791 -0300,
Estimulo_1,28,28,0,1.59999999999999,-1.59999999999999,1.59999999999999,-1.59999999999999,2.2,-2.2,-2.2,2.2,0,3,3,0,,,,,,,,,,,,,,,,,0,28,28,28,,,,,,,,,,,,,,,,,,,,,,,,,,,,,102.97052809999991,,,,,,,,,,,,,,,,,102.9569027,102.97052809999991,102.97052809999991,102.97052809999991,103.25629750000007,103.25653979999993,103.27056979999998,103.27056979999998,103.27056979999998,103.57038659999989,103.57038659999989,103.57038659999989,103.55666960000008,103.27056979999998,103.27056979999998,103.27056979999998,,,,,,,,,,,,,,,,,,,,,,,749084,001,2025-03-20_16h34.18.605,Estimulo_ICE,2024.2.4,60.211873540652185,2025-03-20 16h34.27.040791 -0300,
Estimulo_1,29,29,0,1.49999999999999,-1.49999999999998,1.49999999999999,-1.49999999999998,2.2,-2.2,-2.2,2.2,0,3,3,0,,,,,,,,,,,,,,,,,0,29,29,29,,,,,,,,,,,,,,,,,,,,,,,,,,,,,103.57038659999989,,,,,,,,,,,,,,,,,103.55703190000008,103.57038659999989,103.57038659999989,103.57038659999989,103.85647769999991,103.8567195999999,103.87058239999988,103.87058239999988,103.87058239999988,104.17050419999987,104.17050419999987,104.17050419999987,104.15642419999995,103.87058239999988,103.87058239999988,103.87058239999988,,,,,,,,,,,,,,,,,,,,,,,749084,001,2025-03-20_16h34.18.605,Estimulo_ICE,2024.2.4,60.211873540652185,2025-03-20 16h34.27.040791 -0300,
