LoopName,thisN,thisTrialN,thisRepN,px1,px2,px3,px4,py1,py2,py3,py4,key_resp_2.keys,key_resp_3.keys,key_resp_2.rt,key_resp_2.duration,key_resp_3.rt,key_resp_3.duration,MainLoop.thisRepN,MainLoop.thisTrialN,MainLoop.thisN,MainLoop.thisIndex,loop_1.thisRepN,loop_1.thisTrialN,loop_1.thisN,loop_1.thisIndex,thisRow.t,notes,salvar.started,salvar.stopped,codigo.started,codigo.stopped,trial.started,image.started,image_2.started,polygon.started,key_resp_2.started,trial.stopped,loop_1.key_resp_2.keys,trial_2.started,image_3.started,image_4.started,polygon_2.started,key_resp_3.started,trial_2.stopped,loop_1.key_resp_3.keys,loop_1.key_resp_2.rt,loop_1.key_resp_2.duration,loop_1.key_resp_3.rt,loop_1.key_resp_3.duration,participant,session,date,expName,psychopyVersion,frameRate,expStart,
,,,,,,,,,,,,,,,,,,,,,,,,,,,,0.008800000000064756,0.009141200000158278,,,,,,,,,,,,,,,,,,,,,980701,001,2025-03-26_15h32.21.703,Estimulo_ICE,2024.2.4,61.28322163445787,2025-03-26 15h32.26.480118 -0300,
Estimulo_1,0,0,0,4.4,-4.4,4.4,-4.4,2.2,-2.2,-2.2,2.2,None,None,,,,,0,0,0,0,0,0,0,0,0.039271400000188805,,,,0.014143300000114323,0.014477400000032503,0.026612300000124378,0.039271400000188805,0.039271400000188805,0.039271400000188805,0.039271400000188805,0.32422250000013264,None,0.32445670000015525,0.3387830000001486,0.3387830000001486,0.3387830000001486,0.3387830000001486,0.624155299999984,None,,,,,980701,001,2025-03-26_15h32.21.703,Estimulo_ICE,2024.2.4,61.28322163445787,2025-03-26 15h32.26.480118 -0300,
Estimulo_1,1,1,0,4.3,-4.3,4.3,-4.3,2.2,-2.2,-2.2,2.2,None,None,,,,,0,0,0,0,0,1,1,1,0.6388702000001558,,,,,,0.6244935000001988,0.6388702000001558,0.6388702000001558,0.6388702000001558,0.6388702000001558,0.9245292000000518,None,0.9247801999999865,0.9388243000000784,0.9388243000000784,0.9388243000000784,0.9388243000000784,1.224356700000044,None,,,,,980701,001,2025-03-26_15h32.21.703,Estimulo_ICE,2024.2.4,61.28322163445787,2025-03-26 15h32.26.480118 -0300,
Estimulo_1,2,2,0,4.2,-4.2,4.2,-4.2,2.2,-2.2,-2.2,2.2,None,None,,,,,0,0,0,0,0,2,2,2,1.2386663000002045,,,,,,1.2247111000001496,1.2386663000002045,1.2386663000002045,1.2386663000002045,1.2386663000002045,1.524392200000193,None,1.524640300000101,1.5387631000000965,1.5387631000000965,1.5387631000000965,1.5387631000000965,1.8242181000000528,None,,,,,980701,001,2025-03-26_15h32.21.703,Estimulo_ICE,2024.2.4,61.28322163445787,2025-03-26 15h32.26.480118 -0300,
Estimulo_1,3,3,0,4.1,-4.1,4.1,-4.1,2.2,-2.2,-2.2,2.2,['right'],None,[0.01499069999999847],[0.13558539999985442],,,0,0,0,0,0,3,3,3,1.8387734000000364,,,,,,1.82456830000001,1.8387734000000364,1.8387734000000364,1.8387734000000364,1.8387734000000364,2.124287400000185,['right'],2.1245672000000013,2.138751000000184,2.138751000000184,2.138751000000184,2.138751000000184,2.42432830000007,None,[0.01499069999999847],[0.13558539999985442],,,980701,001,2025-03-26_15h32.21.703,Estimulo_ICE,2024.2.4,61.28322163445787,2025-03-26 15h32.26.480118 -0300,
Estimulo_1,4,4,0,4,-4,4,-4,2.2,-2.2,-2.2,2.2,None,None,,,,,0,0,0,0,0,4,4,4,2.438721100000066,,,,,,2.424679200000128,2.438721100000066,2.438721100000066,2.438721100000066,2.438721100000066,2.7243674000001192,None,2.724612900000011,2.7388321000000815,2.7388321000000815,2.7388321000000815,2.7388321000000815,3.0244137000001956,None,,,,,980701,001,2025-03-26_15h32.21.703,Estimulo_ICE,2024.2.4,61.28322163445787,2025-03-26 15h32.26.480118 -0300,
Estimulo_1,5,5,0,3.9,-3.9,3.9,-3.9,2.2,-2.2,-2.2,2.2,None,['right'],,,[0.25803670000004786],[None],0,0,0,0,0,5,5,5,3.0388753000002,,,,,,3.024761000000126,3.0388753000002,3.0388753000002,3.0388753000002,3.0388753000002,3.3249448999999913,None,3.325215000000071,3.3387248000001364,3.3387248000001364,3.3387248000001364,3.3387248000001364,3.6241794000000027,['right'],,,[0.25803670000004786],[None],980701,001,2025-03-26_15h32.21.703,Estimulo_ICE,2024.2.4,61.28322163445787,2025-03-26 15h32.26.480118 -0300,
Estimulo_1,6,6,0,3.8,-3.8,3.8,-3.8,2.2,-2.2,-2.2,2.2,None,['right'],,,[0.08934960000010506],[0.13631489999988844],0,0,0,0,0,6,6,6,3.638893600000074,,,,,,3.6245576000001165,3.638893600000074,3.638893600000074,3.638893600000074,3.638893600000074,3.927359000000024,None,3.9278260000000955,3.939611700000114,3.939611700000114,3.939611700000114,3.939611700000114,4.234188600000152,['right'],,,[0.08934960000010506],[0.13631489999988844],980701,001,2025-03-26_15h32.21.703,Estimulo_ICE,2024.2.4,61.28322163445787,2025-03-26 15h32.26.480118 -0300,
Estimulo_1,7,7,0,3.7,-3.7,3.7,-3.7,2.2,-2.2,-2.2,2.2,None,None,,,,,0,0,0,0,0,7,7,7,4.2557817000001705,,,,,,4.2357165000000805,4.2557817000001705,4.2557817000001705,4.2557817000001705,4.2557817000001705,4.524195700000064,None,4.5244385000000875,4.538763400000107,4.538763400000107,4.538763400000107,4.538763400000107,4.824159400000099,None,,,,,980701,001,2025-03-26_15h32.21.703,Estimulo_ICE,2024.2.4,61.28322163445787,2025-03-26 15h32.26.480118 -0300,
Estimulo_1,8,8,0,3.6,-3.6,3.6,-3.6,2.2,-2.2,-2.2,2.2,None,None,,,,,0,0,0,0,0,8,8,8,4.838737400000127,,,,,,4.824484600000005,4.838737400000127,4.838737400000127,4.838737400000127,4.838737400000127,5.124288700000079,None,5.124532799999997,5.1388465,5.1388465,5.1388465,5.1388465,5.424316600000111,None,,,,,980701,001,2025-03-26_15h32.21.703,Estimulo_ICE,2024.2.4,61.28322163445787,2025-03-26 15h32.26.480118 -0300,
Estimulo_1,9,9,0,3.5,-3.5,3.5,-3.5,2.2,-2.2,-2.2,2.2,None,None,,,,,0,0,0,0,0,9,9,9,5.438848900000039,,,,,,5.424664600000142,5.438848900000039,5.438848900000039,5.438848900000039,5.438848900000039,5.724246800000174,None,5.724492300000065,5.738755200000014,5.738755200000014,5.738755200000014,5.738755200000014,6.024147300000095,None,,,,,980701,001,2025-03-26_15h32.21.703,Estimulo_ICE,2024.2.4,61.28322163445787,2025-03-26 15h32.26.480118 -0300,
Estimulo_1,10,10,0,3.39999999999999,-3.39999999999999,3.39999999999999,-3.39999999999999,2.2,-2.2,-2.2,2.2,None,None,,,,,0,0,0,0,0,10,10,10,6.038714300000038,,,,,,6.024514100000033,6.038714300000038,6.038714300000038,6.038714300000038,6.038714300000038,6.3243209000002025,None,6.324565900000152,6.338724400000046,6.338724400000046,6.338724400000046,6.338724400000046,6.629856000000018,None,,,,,980701,001,2025-03-26_15h32.21.703,Estimulo_ICE,2024.2.4,61.28322163445787,2025-03-26 15h32.26.480118 -0300,
Estimulo_1,11,11,0,3.29999999999999,-3.29999999999999,3.29999999999999,-3.29999999999999,2.2,-2.2,-2.2,2.2,None,None,,,,,0,0,0,0,0,11,11,11,6.640553000000182,,,,,,6.630825700000059,6.640553000000182,6.640553000000182,6.640553000000182,6.640553000000182,6.941282800000181,None,6.9421173000000636,6.955763900000193,6.955763900000193,6.955763900000193,6.955763900000193,7.22766700000011,None,,,,,980701,001,2025-03-26_15h32.21.703,Estimulo_ICE,2024.2.4,61.28322163445787,2025-03-26 15h32.26.480118 -0300,
Estimulo_1,12,12,0,3.19999999999999,-3.19999999999999,3.19999999999999,-3.19999999999999,2.2,-2.2,-2.2,2.2,['right'],None,[0.1095029999999042],[0.1522935000000416],,,0,0,0,0,0,12,12,12,7.239830600000005,,,,,,7.228395700000192,7.239830600000005,7.239830600000005,7.239830600000005,7.239830600000005,7.524258900000177,['right'],7.524532600000157,7.538560300000199,7.538560300000199,7.538560300000199,7.538560300000199,7.82440900000006,None,[0.1095029999999042],[0.1522935000000416],,,980701,001,2025-03-26_15h32.21.703,Estimulo_ICE,2024.2.4,61.28322163445787,2025-03-26 15h32.26.480118 -0300,
Estimulo_1,13,13,0,3.09999999999999,-3.09999999999999,3.09999999999999,-3.09999999999999,2.2,-2.2,-2.2,2.2,"['right', 'right']",['right'],"[-0.0099608000000444, 0.2701835000000301]","[0.12088970000013433, None]",[0.16239699999982804],[0.0791065000000799],0,0,0,0,0,13,13,13,7.838733200000206,,,,,,7.824768899999981,7.838733200000206,7.838733200000206,7.838733200000206,7.838733200000206,8.128158800000165,"['right', 'right']",8.12875720000011,8.139605000000074,8.139605000000074,8.139605000000074,8.139605000000074,8.425484300000107,['right'],"[-0.0099608000000444, 0.2701835000000301]","[0.12088970000013433, None]",[0.16239699999982804],[0.0791065000000799],980701,001,2025-03-26_15h32.21.703,Estimulo_ICE,2024.2.4,61.28322163445787,2025-03-26 15h32.26.480118 -0300,
Estimulo_1,14,14,0,2.99999999999999,-2.99999999999999,2.99999999999999,-2.99999999999999,2.2,-2.2,-2.2,2.2,['right'],None,[0.061586499999975786],[0.08863980000000993],,,0,0,0,0,0,14,14,14,8.439050800000132,,,,,,8.426030000000083,8.439050800000132,8.439050800000132,8.439050800000132,8.439050800000132,8.72442890000002,['right'],8.724670800000013,8.73877890000017,8.73877890000017,8.73877890000017,8.73877890000017,9.024188800000047,None,[0.061586499999975786],[0.08863980000000993],,,980701,001,2025-03-26_15h32.21.703,Estimulo_ICE,2024.2.4,61.28322163445787,2025-03-26 15h32.26.480118 -0300,
Estimulo_1,15,15,0,2.89999999999999,-2.89999999999999,2.89999999999999,-2.89999999999999,2.2,-2.2,-2.2,2.2,None,None,,,,,0,0,0,0,0,15,15,15,9.038825000000088,,,,,,9.0245460000001,9.038825000000088,9.038825000000088,9.038825000000088,9.038825000000088,9.32428630000004,None,9.32454810000013,9.338698900000054,9.338698900000054,9.338698900000054,9.338698900000054,9.628580600000078,None,,,,,980701,001,2025-03-26_15h32.21.703,Estimulo_ICE,2024.2.4,61.28322163445787,2025-03-26 15h32.26.480118 -0300,
Estimulo_1,16,16,0,2.79999999999999,-2.79999999999999,2.79999999999999,-2.79999999999999,2.2,-2.2,-2.2,2.2,['right'],['right'],[0.12480860000005123],[0.07182230000012169],[0.043062799999916024],[0.0794800999999552],0,0,0,0,0,16,16,16,9.63996270000007,,,,,,9.629407800000081,9.63996270000007,9.63996270000007,9.63996270000007,9.63996270000007,9.924422100000129,['right'],9.924735000000055,9.938639700000067,9.938639700000067,9.938639700000067,9.938639700000067,10.227522300000146,['right'],[0.12480860000005123],[0.07182230000012169],[0.043062799999916024],[0.0794800999999552],980701,001,2025-03-26_15h32.21.703,Estimulo_ICE,2024.2.4,61.28322163445787,2025-03-26 15h32.26.480118 -0300,
Estimulo_1,17,17,0,2.69999999999999,-2.69999999999999,2.69999999999999,-2.69999999999999,2.2,-2.2,-2.2,2.2,None,['right'],,,[0.2852331999999933],[0.07251200000018798],0,0,0,0,0,17,17,17,10.23960390000002,,,,,,10.228299600000128,10.23960390000002,10.23960390000002,10.23960390000002,10.23960390000002,10.527540300000055,None,10.528047000000015,10.539693600000192,10.539693600000192,10.539693600000192,10.539693600000192,10.827690100000154,['right'],,,[0.2852331999999933],[0.07251200000018798],980701,001,2025-03-26_15h32.21.703,Estimulo_ICE,2024.2.4,61.28322163445787,2025-03-26 15h32.26.480118 -0300,
,18,18,0,2.59999999999999,-2.59999999999999,2.59999999999999,-2.59999999999999,2.2,-2.2,-2.2,2.2,,,,,,,,,,,0,18,18,18,10.839678800000002,,,,,,10.828466400000025,10.839678800000002,10.839678800000002,10.839678800000002,10.839678800000002,,,,,,,,,,,,,,,,,,,,,
