LoopName,thisN,thisTrialN,thisRepN,px1,px2,px3,px4,py1,py2,py3,py4,key_resp_6.keys,key_resp_7.keys,key_resp_4.keys,key_resp_5.keys,key_resp_2.keys,key_resp_3.keys,key_resp_2.rt,key_resp_2.duration,key_resp_3.rt,key_resp_3.duration,MainLoop.thisRepN,MainLoop.thisTrialN,MainLoop.thisN,MainLoop.thisIndex,loop_1.thisRepN,loop_1.thisTrialN,loop_1.thisN,loop_1.thisIndex,loop_2.thisRepN,loop_2.thisTrialN,loop_2.thisN,loop_2.thisIndex,loop_3.thisRepN,loop_3.thisTrialN,loop_3.thisN,loop_3.thisIndex,loop_4.thisRepN,loop_4.thisTrialN,loop_4.thisN,loop_4.thisIndex,loop_5.thisRepN,loop_5.thisTrialN,loop_5.thisN,loop_5.thisIndex,loop_6.thisRepN,loop_6.thisTrialN,loop_6.thisN,loop_6.thisIndex,loop_7.thisRepN,loop_7.thisTrialN,loop_7.thisN,loop_7.thisIndex,loop_8.thisRepN,loop_8.thisTrialN,loop_8.thisN,loop_8.thisIndex,loop_9.thisRepN,loop_9.thisTrialN,loop_9.thisN,loop_9.thisIndex,loop_10.thisRepN,loop_10.thisTrialN,loop_10.thisN,loop_10.thisIndex,loop_11.thisRepN,loop_11.thisTrialN,loop_11.thisN,loop_11.thisIndex,loop_12.thisRepN,loop_12.thisTrialN,loop_12.thisN,loop_12.thisIndex,thisRow.t,notes,codigo.started,codigo.stopped,trial_5.started,image_9.started,polygon_6.started,image_10.started,key_resp_6.started,trial_5.stopped,loop_12.key_resp_6.keys,trial_6.started,image_11.started,image_12.started,polygon_7.started,key_resp_7.started,trial_6.stopped,loop_12.key_resp_7.keys,image_11.stopped,image_12.stopped,polygon_7.stopped,key_resp_7.stopped,image_9.stopped,polygon_6.stopped,image_10.stopped,key_resp_6.stopped,_intertrial_interval_.started,polygon_5.started,polygon_5.stopped,_intertrial_interval_.stopped,loop_10.key_resp_6.keys,loop_10.key_resp_7.keys,trial_3.started,image_5.started,image_6.started,polygon_3.started,key_resp_4.started,trial_3.stopped,loop_5.key_resp_4.keys,trial_4.started,image_7.started,image_8.started,polygon_4.started,key_resp_5.started,image_7.stopped,image_8.stopped,polygon_4.stopped,key_resp_5.stopped,trial_4.stopped,loop_5.key_resp_5.keys,image_5.stopped,image_6.stopped,polygon_3.stopped,key_resp_4.stopped,trial.started,image.started,image_2.started,polygon.started,key_resp_2.started,text.started,trial.stopped,loop_2.key_resp_2.keys,trial_2.started,trial_2.stopped,loop_2.key_resp_3.keys,image_3.started,image_4.started,polygon_2.started,key_resp_3.started,image.stopped,image_2.stopped,polygon.stopped,key_resp_2.stopped,text.stopped,image_3.stopped,image_4.stopped,polygon_2.stopped,key_resp_3.stopped,loop_2.key_resp_2.rt,loop_2.key_resp_2.duration,loop_2.key_resp_3.rt,loop_2.key_resp_3.duration,participant,session,date,expName,psychopyVersion,frameRate,expStart,
Estimulo_12,0,0,0,2.2,-2.2,-2.2,2.2,1.09999999999998,-1.09999999999998,1.09999999999998,-1.09999999999998,None,None,,,,,,,,,0,0,0,11,,,,,,,,,,,,,,,,,,,,,,,,,,,,,,,,,,,,,,,,,,,,,0,0,0,0,0.2674072999798227,,0.020809899986488745,0.02124909998383373,0.2470032999990508,0.2674072999798227,0.2674072999798227,0.2674072999798227,0.2674072999798227,0.33613579999655485,None,0.336376699997345,0.3505663999821991,0.3505663999821991,0.3505663999821991,0.3505663999821991,0.6362876999774016,None,,,,,,,,,,,,,,,,,,,,,,,,,,,,,,,,,,,,,,,,,,,,,,,,,,,,,,,,,,,,,,,,,996964,001,2025-03-24_13h31.12.888,Estimulo_ICE,2024.2.4,61.84930664363458,2025-03-24 13h32.23.590689 -0300,
Estimulo_12,1,1,0,2.2,-2.2,-2.2,2.2,1.19999999999998,-1.19999999999998,1.19999999999998,-1.19999999999998,None,None,,,,,,,,,0,0,0,11,,,,,,,,,,,,,,,,,,,,,,,,,,,,,,,,,,,,,,,,,,,,,0,1,1,1,0.6507570999965537,,,,0.6366694999742322,0.6507570999965537,0.6507570999965537,0.6507570999965537,0.6507570999965537,0.9362355999764986,None,0.9364932999887969,0.9507251999748405,0.9507251999748405,0.9507251999748405,0.9507251999748405,1.2362512999970932,None,,,,,,,,,,,,,,,,,,,,,,,,,,,,,,,,,,,,,,,,,,,,,,,,,,,,,,,,,,,,,,,,,996964,001,2025-03-24_13h31.12.888,Estimulo_ICE,2024.2.4,61.84930664363458,2025-03-24 13h32.23.590689 -0300,
Estimulo_12,2,2,0,2.2,-2.2,-2.2,2.2,1.29999999999998,-1.29999999999998,1.29999999999998,-1.29999999999998,None,None,,,,,,,,,0,0,0,11,,,,,,,,,,,,,,,,,,,,,,,,,,,,,,,,,,,,,,,,,,,,,0,2,2,2,1.2506320999818854,,,,1.2366220999974757,1.2506320999818854,1.2506320999818854,1.2506320999818854,1.2506320999818854,1.5361329999868758,None,1.5363928999868222,1.5507167999749072,1.5507167999749072,1.5507167999749072,1.5507167999749072,1.8360924999869894,None,,,,,,,,,,,,,,,,,,,,,,,,,,,,,,,,,,,,,,,,,,,,,,,,,,,,,,,,,,,,,,,,,996964,001,2025-03-24_13h31.12.888,Estimulo_ICE,2024.2.4,61.84930664363458,2025-03-24 13h32.23.590689 -0300,
Estimulo_12,3,3,0,2.2,-2.2,-2.2,2.2,1.39999999999998,-1.39999999999998,1.39999999999998,-1.39999999999998,None,None,,,,,,,,,0,0,0,11,,,,,,,,,,,,,,,,,,,,,,,,,,,,,,,,,,,,,,,,,,,,,0,3,3,3,1.8506123999832198,,,,1.8364622999797575,1.8506123999832198,1.8506123999832198,1.8506123999832198,1.8506123999832198,2.1362420999794267,None,2.136500199994771,2.1505996999912895,2.1505996999912895,2.1505996999912895,2.1505996999912895,2.4362436999799684,None,,,,,,,,,,,,,,,,,,,,,,,,,,,,,,,,,,,,,,,,,,,,,,,,,,,,,,,,,,,,,,,,,996964,001,2025-03-24_13h31.12.888,Estimulo_ICE,2024.2.4,61.84930664363458,2025-03-24 13h32.23.590689 -0300,
Estimulo_12,4,4,0,2.2,-2.2,-2.2,2.2,1.49999999999998,-1.49999999999998,1.49999999999998,-1.49999999999998,None,None,,,,,,,,,0,0,0,11,,,,,,,,,,,,,,,,,,,,,,,,,,,,,,,,,,,,,,,,,,,,,0,4,4,4,2.4504812999803107,,,,2.436610299977474,2.4504812999803107,2.4504812999803107,2.4504812999803107,2.4504812999803107,2.736405899981037,None,2.7366773999819998,2.7506451999943238,2.7506451999943238,2.7506451999943238,2.7506451999943238,3.0249914999876637,None,,,,,,,,,,,,,,,,,,,,,,,,,,,,,,,,,,,,,,,,,,,,,,,,,,,,,,,,,,,,,,,,,996964,001,2025-03-24_13h31.12.888,Estimulo_ICE,2024.2.4,61.84930664363458,2025-03-24 13h32.23.590689 -0300,
Estimulo_12,5,5,0,2.2,-2.2,-2.2,2.2,1.59999999999998,-1.59999999999998,1.59999999999998,-1.59999999999998,None,None,,,,,,,,,0,0,0,11,,,,,,,,,,,,,,,,,,,,,,,,,,,,,,,,,,,,,,,,,,,,,0,5,5,5,3.034879599988926,,,,3.025755599985132,3.034879599988926,3.034879599988926,3.034879599988926,3.034879599988926,3.324327499984065,None,3.3249628999910783,3.335371599998325,3.335371599998325,3.335371599998325,3.335371599998325,3.624186299974099,None,,,,,,,,,,,,,,,,,,,,,,,,,,,,,,,,,,,,,,,,,,,,,,,,,,,,,,,,,,,,,,,,,996964,001,2025-03-24_13h31.12.888,Estimulo_ICE,2024.2.4,61.84930664363458,2025-03-24 13h32.23.590689 -0300,
Estimulo_12,6,6,0,2.2,-2.2,-2.2,2.2,1.69999999999998,-1.69999999999998,1.69999999999998,-1.69999999999998,None,None,,,,,,,,,0,0,0,11,,,,,,,,,,,,,,,,,,,,,,,,,,,,,,,,,,,,,,,,,,,,,0,6,6,6,3.635451699985424,,,,3.6250926999782678,3.635451699985424,3.635451699985424,3.635451699985424,3.635451699985424,3.9243711999733932,None,3.9250130000000354,3.935466799972346,3.935466799972346,3.935466799972346,3.935466799972346,4.236198200000217,None,,,,,,,,,,,,,,,,,,,,,,,,,,,,,,,,,,,,,,,,,,,,,,,,,,,,,,,,,,,,,,,,,996964,001,2025-03-24_13h31.12.888,Estimulo_ICE,2024.2.4,61.84930664363458,2025-03-24 13h32.23.590689 -0300,
Estimulo_12,7,7,0,2.2,-2.2,-2.2,2.2,1.79999999999998,-1.79999999999998,1.79999999999998,-1.79999999999998,None,None,,,,,,,,,0,0,0,11,,,,,,,,,,,,,,,,,,,,,,,,,,,,,,,,,,,,,,,,,,,,,0,7,7,7,4.250597799982643,,,,4.236567099986132,4.250597799982643,4.250597799982643,4.250597799982643,4.250597799982643,4.536036799981957,None,4.53629779999028,4.550802099984139,4.550802099984139,4.550802099984139,4.550802099984139,4.836219999997411,None,,,,,,,,,,,,,,,,,,,,,,,,,,,,,,,,,,,,,,,,,,,,,,,,,,,,,,,,,,,,,,,,,996964,001,2025-03-24_13h31.12.888,Estimulo_ICE,2024.2.4,61.84930664363458,2025-03-24 13h32.23.590689 -0300,
Estimulo_12,8,8,0,2.2,-2.2,-2.2,2.2,1.89999999999998,-1.89999999999998,1.89999999999998,-1.89999999999998,None,None,,,,,,,,,0,0,0,11,,,,,,,,,,,,,,,,,,,,,,,,,,,,,,,,,,,,,,,,,,,,,0,8,8,8,4.850502399989637,,,,4.836589399987133,4.850502399989637,4.850502399989637,4.850502399989637,4.850502399989637,5.122839199990267,None,5.123381199984578,5.134870399982901,5.134870399982901,5.134870399982901,5.134870399982901,5.4227651999972295,None,,,,,,,,,,,,,,,,,,,,,,,,,,,,,,,,,,,,,,,,,,,,,,,,,,,,,,,,,,,,,,,,,996964,001,2025-03-24_13h31.12.888,Estimulo_ICE,2024.2.4,61.84930664363458,2025-03-24 13h32.23.590689 -0300,
Estimulo_12,9,9,0,2.2,-2.2,-2.2,2.2,1.99999999999998,-1.99999999999998,1.99999999999998,-1.99999999999998,None,None,,,,,,,,,0,0,0,11,,,,,,,,,,,,,,,,,,,,,,,,,,,,,,,,,,,,,,,,,,,,,0,9,9,9,5.434922499989625,,,,5.423519099975238,5.434922499989625,5.434922499989625,5.434922499989625,5.434922499989625,5.722655599995051,None,5.7232000999792945,5.734827399981441,5.734827399981441,5.734827399981441,5.734827399981441,6.020952399994712,None,6.034186999982921,6.034186999982921,6.034186999982921,6.034186999982921,,,,,,,,,,,,,,,,,,,,,,,,,,,,,,,,,,,,,,,,,,,,,,,,,,,,,,,,,,,,,996964,001,2025-03-24_13h31.12.888,Estimulo_ICE,2024.2.4,61.84930664363458,2025-03-24 13h32.23.590689 -0300,
Estimulo_12,10,10,0,2.2,-2.2,-2.2,2.2,2.09999999999998,-2.09999999999998,2.09999999999998,-2.09999999999998,None,None,,,,,,,,,0,0,0,11,,,,,,,,,,,,,,,,,,,,,,,,,,,,,,,,,,,,,,,,,,,,,0,10,10,10,6.034186999982921,,,,6.0214744999830145,6.034186999982921,6.034186999982921,6.034186999982921,6.034186999982921,6.319868199992925,None,6.320140600000741,6.333980399998836,6.333980399998836,6.333980399998836,6.333980399998836,6.619737999979407,None,6.633992299990496,6.633992299990496,6.633992299990496,6.633992299990496,6.333980399998836,6.333980399998836,6.333980399998836,6.333980399998836,,,,,,,,,,,,,,,,,,,,,,,,,,,,,,,,,,,,,,,,,,,,,,,,,,,,,,,,,996964,001,2025-03-24_13h31.12.888,Estimulo_ICE,2024.2.4,61.84930664363458,2025-03-24 13h32.23.590689 -0300,
Estimulo_12,11,11,0,2.2,-2.2,-2.2,2.2,2.19999999999998,-2.19999999999998,2.19999999999998,-2.19999999999998,None,None,,,,,,,,,0,0,0,11,,,,,,,,,,,,,,,,,,,,,,,,,,,,,,,,,,,,,,,,,,,,,0,11,11,11,6.633992299990496,,,,6.620131899981061,6.633992299990496,6.633992299990496,6.633992299990496,6.633992299990496,6.919919499981916,None,6.920174399972893,6.933955399988918,6.933955399988918,6.933955399988918,6.933955399988918,7.219917299982626,None,7.233857599989278,7.233857599989278,7.233857599989278,7.233857599989278,6.933955399988918,6.933955399988918,6.933955399988918,6.933955399988918,,,,,,,,,,,,,,,,,,,,,,,,,,,,,,,,,,,,,,,,,,,,,,,,,,,,,,,,,996964,001,2025-03-24_13h31.12.888,Estimulo_ICE,2024.2.4,61.84930664363458,2025-03-24 13h32.23.590689 -0300,
Estimulo_12,12,12,0,2.2,-2.2,-2.2,2.2,2.29999999999998,-2.29999999999998,2.29999999999998,-2.29999999999998,None,None,,,,,,,,,0,0,0,11,,,,,,,,,,,,,,,,,,,,,,,,,,,,,,,,,,,,,,,,,,,,,0,12,12,12,7.233857599989278,,,,7.220307099982165,7.233857599989278,7.233857599989278,7.233857599989278,7.233857599989278,7.519891999982065,None,7.520166399976006,7.53382299997611,7.53382299997611,7.53382299997611,7.53382299997611,7.819740099977935,None,7.83390899997903,7.83390899997903,7.83390899997903,7.83390899997903,7.53382299997611,7.53382299997611,7.53382299997611,7.53382299997611,,,,,,,,,,,,,,,,,,,,,,,,,,,,,,,,,,,,,,,,,,,,,,,,,,,,,,,,,996964,001,2025-03-24_13h31.12.888,Estimulo_ICE,2024.2.4,61.84930664363458,2025-03-24 13h32.23.590689 -0300,
Estimulo_12,13,13,0,2.2,-2.2,-2.2,2.2,2.39999999999998,-2.39999999999998,2.39999999999998,-2.39999999999998,None,None,,,,,,,,,0,0,0,11,,,,,,,,,,,,,,,,,,,,,,,,,,,,,,,,,,,,,,,,,,,,,0,13,13,13,7.83390899997903,,,,7.820125999976881,7.83390899997903,7.83390899997903,7.83390899997903,7.83390899997903,8.119826799986186,None,8.120101499982411,8.133950899995398,8.133950899995398,8.133950899995398,8.133950899995398,8.41986939997878,None,8.433908999984851,8.433908999984851,8.433908999984851,8.433908999984851,8.133950899995398,8.133950899995398,8.133950899995398,8.133950899995398,,,,,,,,,,,,,,,,,,,,,,,,,,,,,,,,,,,,,,,,,,,,,,,,,,,,,,,,,996964,001,2025-03-24_13h31.12.888,Estimulo_ICE,2024.2.4,61.84930664363458,2025-03-24 13h32.23.590689 -0300,
Estimulo_12,14,14,0,2.2,-2.2,-2.2,2.2,2.49999999999998,-2.49999999999998,2.49999999999998,-2.49999999999998,None,None,,,,,,,,,0,0,0,11,,,,,,,,,,,,,,,,,,,,,,,,,,,,,,,,,,,,,,,,,,,,,0,14,14,14,8.433908999984851,,,,8.420251699979417,8.433908999984851,8.433908999984851,8.433908999984851,8.433908999984851,8.719712599995546,None,8.719987799995579,8.733849199983524,8.733849199983524,8.733849199983524,8.733849199983524,9.019688199972734,None,9.03394809999736,9.03394809999736,9.03394809999736,9.03394809999736,8.733849199983524,8.733849199983524,8.733849199983524,8.733849199983524,,,,,,,,,,,,,,,,,,,,,,,,,,,,,,,,,,,,,,,,,,,,,,,,,,,,,,,,,996964,001,2025-03-24_13h31.12.888,Estimulo_ICE,2024.2.4,61.84930664363458,2025-03-24 13h32.23.590689 -0300,
Estimulo_12,15,15,0,2.2,-2.2,-2.2,2.2,2.59999999999998,-2.59999999999998,2.59999999999998,-2.59999999999998,None,None,,,,,,,,,0,0,0,11,,,,,,,,,,,,,,,,,,,,,,,,,,,,,,,,,,,,,,,,,,,,,0,15,15,15,9.03394809999736,,,,9.020074999978533,9.03394809999736,9.03394809999736,9.03394809999736,9.03394809999736,9.31969219999155,None,9.319966999988537,9.333839699975215,9.333839699975215,9.333839699975215,9.333839699975215,9.619855899974937,None,9.63390609997441,9.63390609997441,9.63390609997441,9.63390609997441,9.333839699975215,9.333839699975215,9.333839699975215,9.333839699975215,,,,,,,,,,,,,,,,,,,,,,,,,,,,,,,,,,,,,,,,,,,,,,,,,,,,,,,,,996964,001,2025-03-24_13h31.12.888,Estimulo_ICE,2024.2.4,61.84930664363458,2025-03-24 13h32.23.590689 -0300,
Estimulo_12,16,16,0,2.2,-2.2,-2.2,2.2,2.69999999999998,-2.69999999999998,2.69999999999998,-2.69999999999998,None,None,,,,,,,,,0,0,0,11,,,,,,,,,,,,,,,,,,,,,,,,,,,,,,,,,,,,,,,,,,,,,0,16,16,16,9.63390609997441,,,,9.620237999974051,9.63390609997441,9.63390609997441,9.63390609997441,9.63390609997441,9.919773999979952,None,9.9200488999777,9.933917899994412,9.933917899994412,9.933917899994412,9.933917899994412,10.219873800000641,None,10.233938599994872,10.233938599994872,10.233938599994872,10.233938599994872,9.933917899994412,9.933917899994412,9.933917899994412,9.933917899994412,,,,,,,,,,,,,,,,,,,,,,,,,,,,,,,,,,,,,,,,,,,,,,,,,,,,,,,,,996964,001,2025-03-24_13h31.12.888,Estimulo_ICE,2024.2.4,61.84930664363458,2025-03-24 13h32.23.590689 -0300,
Estimulo_12,17,17,0,2.2,-2.2,-2.2,2.2,2.79999999999998,-2.79999999999998,2.79999999999998,-2.79999999999998,None,None,,,,,,,,,0,0,0,11,,,,,,,,,,,,,,,,,,,,,,,,,,,,,,,,,,,,,,,,,,,,,0,17,17,17,10.233938599994872,,,,10.220253599982243,10.233938599994872,10.233938599994872,10.233938599994872,10.233938599994872,10.519680599973071,None,10.519954299990786,10.53387409998686,10.53387409998686,10.53387409998686,10.53387409998686,10.819993099983549,None,10.833866899978602,10.833866899978602,10.833866899978602,10.833866899978602,10.53387409998686,10.53387409998686,10.53387409998686,10.53387409998686,,,,,,,,,,,,,,,,,,,,,,,,,,,,,,,,,,,,,,,,,,,,,,,,,,,,,,,,,996964,001,2025-03-24_13h31.12.888,Estimulo_ICE,2024.2.4,61.84930664363458,2025-03-24 13h32.23.590689 -0300,
Estimulo_12,18,18,0,2.2,-2.2,-2.2,2.2,2.89999999999998,-2.89999999999998,2.89999999999998,-2.89999999999998,None,None,,,,,,,,,0,0,0,11,,,,,,,,,,,,,,,,,,,,,,,,,,,,,,,,,,,,,,,,,,,,,0,18,18,18,10.833866899978602,,,,10.820702499971958,10.833866899978602,10.833866899978602,10.833866899978602,10.833866899978602,11.119806299975608,None,11.120080900000175,11.13392159997602,11.13392159997602,11.13392159997602,11.13392159997602,11.419750099972589,None,11.43394679998164,11.43394679998164,11.43394679998164,11.43394679998164,11.13392159997602,11.13392159997602,11.13392159997602,11.13392159997602,,,,,,,,,,,,,,,,,,,,,,,,,,,,,,,,,,,,,,,,,,,,,,,,,,,,,,,,,996964,001,2025-03-24_13h31.12.888,Estimulo_ICE,2024.2.4,61.84930664363458,2025-03-24 13h32.23.590689 -0300,
Estimulo_12,19,19,0,2.2,-2.2,-2.2,2.2,2.99999999999998,-2.99999999999998,2.99999999999998,-2.99999999999998,None,None,,,,,,,,,0,0,0,11,,,,,,,,,,,,,,,,,,,,,,,,,,,,,,,,,,,,,,,,,,,,,0,19,19,19,11.43394679998164,,,,11.420136099972297,11.43394679998164,11.43394679998164,11.43394679998164,11.43394679998164,11.719781299994793,None,11.720055299985688,11.733837699983269,11.733837699983269,11.733837699983269,11.733837699983269,12.019786599994404,None,12.03395179999643,12.03395179999643,12.03395179999643,12.03395179999643,11.733837699983269,11.733837699983269,11.733837699983269,11.733837699983269,,,,,,,,,,,,,,,,,,,,,,,,,,,,,,,,,,,,,,,,,,,,,,,,,,,,,,,,,996964,001,2025-03-24_13h31.12.888,Estimulo_ICE,2024.2.4,61.84930664363458,2025-03-24 13h32.23.590689 -0300,
Estimulo_12,20,20,0,2.2,-2.2,-2.2,2.2,3.09999999999998,-3.09999999999998,3.09999999999998,-3.09999999999998,None,None,,,,,,,,,0,0,0,11,,,,,,,,,,,,,,,,,,,,,,,,,,,,,,,,,,,,,,,,,,,,,0,20,20,20,12.03395179999643,,,,12.020170799980406,12.03395179999643,12.03395179999643,12.03395179999643,12.03395179999643,12.319678199972259,None,12.319954399979906,12.33384069998283,12.33384069998283,12.33384069998283,12.33384069998283,12.619765899988124,None,12.633996099990327,12.633996099990327,12.633996099990327,12.633996099990327,12.33384069998283,12.33384069998283,12.33384069998283,12.33384069998283,,,,,,,,,,,,,,,,,,,,,,,,,,,,,,,,,,,,,,,,,,,,,,,,,,,,,,,,,996964,001,2025-03-24_13h31.12.888,Estimulo_ICE,2024.2.4,61.84930664363458,2025-03-24 13h32.23.590689 -0300,
Estimulo_12,21,21,0,2.2,-2.2,-2.2,2.2,3.19999999999998,-3.19999999999998,3.19999999999998,-3.19999999999998,None,None,,,,,,,,,0,0,0,11,,,,,,,,,,,,,,,,,,,,,,,,,,,,,,,,,,,,,,,,,,,,,0,21,21,21,12.633996099990327,,,,12.620150099974126,12.633996099990327,12.633996099990327,12.633996099990327,12.633996099990327,12.919879399996717,None,12.92014519998338,12.93385249999119,12.93385249999119,12.93385249999119,12.93385249999119,13.21973209999851,None,13.233785499993246,13.233785499993246,13.233785499993246,13.233785499993246,12.93385249999119,12.93385249999119,12.93385249999119,12.93385249999119,,,,,,,,,,,,,,,,,,,,,,,,,,,,,,,,,,,,,,,,,,,,,,,,,,,,,,,,,996964,001,2025-03-24_13h31.12.888,Estimulo_ICE,2024.2.4,61.84930664363458,2025-03-24 13h32.23.590689 -0300,
Estimulo_12,22,22,0,2.2,-2.2,-2.2,2.2,3.29999999999998,-3.29999999999998,3.29999999999998,-3.29999999999998,None,None,,,,,,,,,0,0,0,11,,,,,,,,,,,,,,,,,,,,,,,,,,,,,,,,,,,,,,,,,,,,,0,22,22,22,13.233785499993246,,,,13.220117399992887,13.233785499993246,13.233785499993246,13.233785499993246,13.233785499993246,13.519813199993223,None,13.520087399985641,13.533799899974838,13.533799899974838,13.533799899974838,13.533799899974838,13.81983909997507,None,13.833940299984533,13.833940299984533,13.833940299984533,13.833940299984533,13.533799899974838,13.533799899974838,13.533799899974838,13.533799899974838,,,,,,,,,,,,,,,,,,,,,,,,,,,,,,,,,,,,,,,,,,,,,,,,,,,,,,,,,996964,001,2025-03-24_13h31.12.888,Estimulo_ICE,2024.2.4,61.84930664363458,2025-03-24 13h32.23.590689 -0300,
Estimulo_12,23,23,0,2.2,-2.2,-2.2,2.2,3.39999999999998,-3.39999999999998,3.39999999999998,-3.39999999999998,None,None,,,,,,,,,0,0,0,11,,,,,,,,,,,,,,,,,,,,,,,,,,,,,,,,,,,,,,,,,,,,,0,23,23,23,13.833940299984533,,,,13.820205299998634,13.833940299984533,13.833940299984533,13.833940299984533,13.833940299984533,14.11960849998286,None,14.119881999999052,14.133849199977703,14.133849199977703,14.133849199977703,14.133849199977703,14.41974789998494,None,14.433918700000504,14.433918700000504,14.433918700000504,14.433918700000504,14.133849199977703,14.133849199977703,14.133849199977703,14.133849199977703,,,,,,,,,,,,,,,,,,,,,,,,,,,,,,,,,,,,,,,,,,,,,,,,,,,,,,,,,996964,001,2025-03-24_13h31.12.888,Estimulo_ICE,2024.2.4,61.84930664363458,2025-03-24 13h32.23.590689 -0300,
Estimulo_12,24,24,0,2.2,-2.2,-2.2,2.2,3.49999999999998,-3.49999999999998,3.49999999999998,-3.49999999999998,None,None,,,,,,,,,0,0,0,11,,,,,,,,,,,,,,,,,,,,,,,,,,,,,,,,,,,,,,,,,,,,,0,24,24,24,14.433918700000504,,,,14.420130399987102,14.433918700000504,14.433918700000504,14.433918700000504,14.433918700000504,14.719686899974477,None,14.719954000000143,14.73380869999528,14.73380869999528,14.73380869999528,14.73380869999528,15.019816899992293,None,15.03388289999566,15.03388289999566,15.03388289999566,15.03388289999566,14.73380869999528,14.73380869999528,14.73380869999528,14.73380869999528,,,,,,,,,,,,,,,,,,,,,,,,,,,,,,,,,,,,,,,,,,,,,,,,,,,,,,,,,996964,001,2025-03-24_13h31.12.888,Estimulo_ICE,2024.2.4,61.84930664363458,2025-03-24 13h32.23.590689 -0300,
Estimulo_12,25,25,0,2.2,-2.2,-2.2,2.2,3.59999999999998,-3.59999999999998,3.59999999999998,-3.59999999999998,None,None,,,,,,,,,0,0,0,11,,,,,,,,,,,,,,,,,,,,,,,,,,,,,,,,,,,,,,,,,,,,,0,25,25,25,15.03388289999566,,,,15.020199499995215,15.03388289999566,15.03388289999566,15.03388289999566,15.03388289999566,15.31969819997903,None,15.31997389998287,15.333900199999334,15.333900199999334,15.333900199999334,15.333900199999334,15.6196898999915,None,15.633851099992171,15.633851099992171,15.633851099992171,15.633851099992171,15.333900199999334,15.333900199999334,15.333900199999334,15.333900199999334,,,,,,,,,,,,,,,,,,,,,,,,,,,,,,,,,,,,,,,,,,,,,,,,,,,,,,,,,996964,001,2025-03-24_13h31.12.888,Estimulo_ICE,2024.2.4,61.84930664363458,2025-03-24 13h32.23.590689 -0300,
Estimulo_12,26,26,0,2.2,-2.2,-2.2,2.2,3.69999999999998,-3.69999999999998,3.69999999999998,-3.69999999999998,None,None,,,,,,,,,0,0,0,11,,,,,,,,,,,,,,,,,,,,,,,,,,,,,,,,,,,,,,,,,,,,,0,26,26,26,15.633851099992171,,,,15.620073699974455,15.633851099992171,15.633851099992171,15.633851099992171,15.633851099992171,15.919630799995502,None,15.919905399990967,15.933837399992626,15.933837399992626,15.933837399992626,15.933837399992626,16.219734999991488,None,16.23377179997624,16.23377179997624,16.23377179997624,16.23377179997624,15.933837399992626,15.933837399992626,15.933837399992626,15.933837399992626,,,,,,,,,,,,,,,,,,,,,,,,,,,,,,,,,,,,,,,,,,,,,,,,,,,,,,,,,996964,001,2025-03-24_13h31.12.888,Estimulo_ICE,2024.2.4,61.84930664363458,2025-03-24 13h32.23.590689 -0300,
Estimulo_12,27,27,0,2.2,-2.2,-2.2,2.2,3.79999999999998,-3.79999999999998,3.79999999999998,-3.79999999999998,None,None,,,,,,,,,0,0,0,11,,,,,,,,,,,,,,,,,,,,,,,,,,,,,,,,,,,,,,,,,,,,,0,27,27,27,16.23377179997624,,,,16.22011029999703,16.23377179997624,16.23377179997624,16.23377179997624,16.23377179997624,16.51983379997546,None,16.52010049999808,16.533766299980925,16.533766299980925,16.533766299980925,16.533766299980925,16.8196516999742,None,16.83379539998714,16.83379539998714,16.83379539998714,16.83379539998714,16.533766299980925,16.533766299980925,16.533766299980925,16.533766299980925,,,,,,,,,,,,,,,,,,,,,,,,,,,,,,,,,,,,,,,,,,,,,,,,,,,,,,,,,996964,001,2025-03-24_13h31.12.888,Estimulo_ICE,2024.2.4,61.84930664363458,2025-03-24 13h32.23.590689 -0300,
Estimulo_12,28,28,0,2.2,-2.2,-2.2,2.2,3.89999999999998,-3.89999999999998,3.89999999999998,-3.89999999999998,None,None,,,,,,,,,0,0,0,11,,,,,,,,,,,,,,,,,,,,,,,,,,,,,,,,,,,,,,,,,,,,,0,28,28,28,16.83379539998714,,,,16.820038599980762,16.83379539998714,16.83379539998714,16.83379539998714,16.83379539998714,17.119772499980172,None,17.120048299984774,17.13391349997255,17.13391349997255,17.13391349997255,17.13391349997255,17.419718599994667,None,17.433928699989337,17.433928699989337,17.433928699989337,17.433928699989337,17.13391349997255,17.13391349997255,17.13391349997255,17.13391349997255,,,,,,,,,,,,,,,,,,,,,,,,,,,,,,,,,,,,,,,,,,,,,,,,,,,,,,,,,996964,001,2025-03-24_13h31.12.888,Estimulo_ICE,2024.2.4,61.84930664363458,2025-03-24 13h32.23.590689 -0300,
Estimulo_12,29,29,0,2.2,-2.2,-2.2,2.2,3.99999999999998,-3.99999999999998,3.99999999999998,-3.99999999999998,None,None,,,,,,,,,0,0,0,11,,,,,,,,,,,,,,,,,,,,,,,,,,,,,,,,,,,,,,,,,,,,,0,29,29,29,17.433928699989337,,,,17.42010119999759,17.433928699989337,17.433928699989337,17.433928699989337,17.433928699989337,17.71972629998345,None,17.72000129998196,17.733837599982508,17.733837599982508,17.733837599982508,17.733837599982508,18.019768999976804,None,18.033770699985325,18.033770699985325,18.033770699985325,18.033770699985325,17.733837599982508,17.733837599982508,17.733837599982508,17.733837599982508,,,,,,,,,,,,,,,,,,,,,,,,,,,,,,,,,,,,,,,,,,,,,,,,,,,,,,,,,996964,001,2025-03-24_13h31.12.888,Estimulo_ICE,2024.2.4,61.84930664363458,2025-03-24 13h32.23.590689 -0300,
Estimulo_12,30,30,0,2.2,-2.2,-2.2,2.2,4.09999999999998,-4.09999999999998,4.09999999999998,-4.09999999999998,None,None,,,,,,,,,0,0,0,11,,,,,,,,,,,,,,,,,,,,,,,,,,,,,,,,,,,,,,,,,,,,,0,30,30,30,18.033770699985325,,,,18.020150500000454,18.033770699985325,18.033770699985325,18.033770699985325,18.033770699985325,18.319639999972424,None,18.319913499988616,18.333802399982233,18.333802399982233,18.333802399982233,18.333802399982233,18.619720099988626,None,18.63386069997796,18.63386069997796,18.63386069997796,18.63386069997796,18.333802399982233,18.333802399982233,18.333802399982233,18.333802399982233,,,,,,,,,,,,,,,,,,,,,,,,,,,,,,,,,,,,,,,,,,,,,,,,,,,,,,,,,996964,001,2025-03-24_13h31.12.888,Estimulo_ICE,2024.2.4,61.84930664363458,2025-03-24 13h32.23.590689 -0300,
Estimulo_12,31,31,0,2.2,-2.2,-2.2,2.2,4.19999999999998,-4.19999999999998,4.19999999999998,-4.19999999999998,None,None,,,,,,,,,0,0,0,11,,,,,,,,,,,,,,,,,,,,,,,,,,,,,,,,,,,,,,,,,,,,,0,31,31,31,18.63386069997796,,,,18.620102999993833,18.63386069997796,18.63386069997796,18.63386069997796,18.63386069997796,18.919496899994556,None,18.919761400000425,18.93385309999576,18.93385309999576,18.93385309999576,18.93385309999576,19.219697099993937,None,19.233736499998486,19.233736499998486,19.233736499998486,19.233736499998486,18.93385309999576,18.93385309999576,18.93385309999576,18.93385309999576,,,,,,,,,,,,,,,,,,,,,,,,,,,,,,,,,,,,,,,,,,,,,,,,,,,,,,,,,996964,001,2025-03-24_13h31.12.888,Estimulo_ICE,2024.2.4,61.84930664363458,2025-03-24 13h32.23.590689 -0300,
Estimulo_12,32,32,0,2.2,-2.2,-2.2,2.2,4.29999999999998,-4.29999999999998,4.29999999999998,-4.29999999999998,None,None,,,,,,,,,0,0,0,11,,,,,,,,,,,,,,,,,,,,,,,,,,,,,,,,,,,,,,,,,,,,,0,32,32,32,19.233736499998486,,,,19.220080999977654,19.233736499998486,19.233736499998486,19.233736499998486,19.233736499998486,19.519719899981283,None,19.519996599992737,19.5338193999778,19.5338193999778,19.5338193999778,19.5338193999778,19.819602899980964,None,19.833855099976063,19.833855099976063,19.833855099976063,19.833855099976063,19.5338193999778,19.5338193999778,19.5338193999778,19.5338193999778,,,,,,,,,,,,,,,,,,,,,,,,,,,,,,,,,,,,,,,,,,,,,,,,,,,,,,,,,996964,001,2025-03-24_13h31.12.888,Estimulo_ICE,2024.2.4,61.84930664363458,2025-03-24 13h32.23.590689 -0300,
Estimulo_12,33,33,0,2.2,-2.2,-2.2,2.2,4.39999999999998,-4.39999999999998,4.39999999999998,-4.39999999999998,None,None,,,,,,,,,0,0,0,11,,,,,,,,,,,,,,,,,,,,,,,,,,,,,,,,,,,,,,,,,,,,,0,33,33,33,19.833855099976063,,,,19.81998569998541,19.833855099976063,19.833855099976063,19.833855099976063,19.833855099976063,20.11982939997688,None,20.12010349999764,20.133897499996237,20.133897499996237,20.133897499996237,20.133897499996237,20.419729099987308,None,20.43389999997453,20.43389999997453,20.43389999997453,20.43389999997453,20.133897499996237,20.133897499996237,20.133897499996237,20.133897499996237,,,,,,,,,,,,,,,,,,,,,,,,,,,,,,,,,,,,,,,,,,,,,,,,,,,,,,,,,996964,001,2025-03-24_13h31.12.888,Estimulo_ICE,2024.2.4,61.84930664363458,2025-03-24 13h32.23.590689 -0300,
Estimulo_12,0,0,0,,,,,,,,,,,,,,,,,,,0,0,0,11,,,,,,,,,,,,,,,,,,,,,,,,,,,,,,,,,,,,,,,,,,,,,,,,,,,,,,,,,,,,,,,,,,,,,,,,,,,20.424697999987984,20.43389999997453,22.050009499973385,21.919667899986962,,,,,,,,,,,,,,,,,,,,,,,,,,,,,,,,,,,,,,,,,,,,,,,,,,,,,996964,001,2025-03-24_13h31.12.888,Estimulo_ICE,2024.2.4,61.84930664363458,2025-03-24 13h32.23.590689 -0300,
Estimulo_10,0,0,0,1.1,-1.1,1.1,-1.1,2.2,-2.2,-2.2,2.2,None,None,,,,,,,,,0,1,1,9,,,,,,,,,,,,,,,,,,,,,,,,,,,,,,,,,,,,,0,0,0,0,,,,,,,,,22.050009499973385,,21.9197893999808,21.920092599990312,22.03902639998705,22.050009499973385,22.050009499973385,22.050009499973385,22.050009499973385,22.236041999974987,,22.236300999997184,22.250336599972798,22.250336599972798,22.250336599972798,22.250336599972798,22.524499399994966,,,,,,,,,,,,,,None,None,,,,,,,,,,,,,,,,,,,,,,,,,,,,,,,,,,,,,,,,,,,,,,,,,,,996964,001,2025-03-24_13h31.12.888,Estimulo_ICE,2024.2.4,61.84930664363458,2025-03-24 13h32.23.590689 -0300,
Estimulo_10,1,1,0,1.2,-1.2,1.2,-1.2,2.2,-2.2,-2.2,2.2,None,None,,,,,,,,,0,1,1,9,,,,,,,,,,,,,,,,,,,,,,,,,,,,,,,,,,,,,0,1,1,1,,,,,,,,,22.535144900000887,,,,22.5254301999812,22.535144900000887,22.535144900000887,22.535144900000887,22.535144900000887,22.824156999995466,,22.824797499983106,22.835186599986628,22.835186599986628,22.835186599986628,22.835186599986628,23.136047899984987,,,,,,,,,,,,,,None,None,,,,,,,,,,,,,,,,,,,,,,,,,,,,,,,,,,,,,,,,,,,,,,,,,,,996964,001,2025-03-24_13h31.12.888,Estimulo_ICE,2024.2.4,61.84930664363458,2025-03-24 13h32.23.590689 -0300,
Estimulo_10,2,2,0,1.3,-1.3,1.3,-1.3,2.2,-2.2,-2.2,2.2,None,None,,,,,,,,,0,1,1,9,,,,,,,,,,,,,,,,,,,,,,,,,,,,,,,,,,,,,0,2,2,2,,,,,,,,,23.150284999981523,,,,23.136422199982917,23.150284999981523,23.150284999981523,23.150284999981523,23.150284999981523,23.436028500000248,,23.436289999983273,23.45036089999485,23.45036089999485,23.45036089999485,23.45036089999485,23.736027799983276,,,,,,,,,,,,,,None,None,,,,,,,,,,,,,,,,,,,,,,,,,,,,,,,,,,,,,,,,,,,,,,,,,,,996964,001,2025-03-24_13h31.12.888,Estimulo_ICE,2024.2.4,61.84930664363458,2025-03-24 13h32.23.590689 -0300,
Estimulo_10,3,3,0,1.4,-1.4,1.4,-1.4,2.2,-2.2,-2.2,2.2,None,None,,,,,,,,,0,1,1,9,,,,,,,,,,,,,,,,,,,,,,,,,,,,,,,,,,,,,0,3,3,3,,,,,,,,,23.750423599994974,,,,23.736401499976637,23.750423599994974,23.750423599994974,23.750423599994974,23.750423599994974,24.035952699981863,,24.036217299988493,24.050514199974714,24.050514199974714,24.050514199974714,24.050514199974714,24.33578709998983,,,,,,,,,,,,,,None,None,,,,,,,,,,,,,,,,,,,,,,,,,,,,,,,,,,,,,,,,,,,,,,,,,,,996964,001,2025-03-24_13h31.12.888,Estimulo_ICE,2024.2.4,61.84930664363458,2025-03-24 13h32.23.590689 -0300,
Estimulo_10,4,4,0,1.5,-1.5,1.5,-1.5,2.2,-2.2,-2.2,2.2,None,None,,,,,,,,,0,1,1,9,,,,,,,,,,,,,,,,,,,,,,,,,,,,,,,,,,,,,0,4,4,4,,,,,,,,,24.350554199976614,,,,24.33616379997693,24.350554199976614,24.350554199976614,24.350554199976614,24.350554199976614,24.63601469999412,,24.636281199986115,24.65037679998204,24.65037679998204,24.65037679998204,24.65037679998204,24.936029099975713,,,,,,,,,,,,,,None,None,,,,,,,,,,,,,,,,,,,,,,,,,,,,,,,,,,,,,,,,,,,,,,,,,,,996964,001,2025-03-24_13h31.12.888,Estimulo_ICE,2024.2.4,61.84930664363458,2025-03-24 13h32.23.590689 -0300,
Estimulo_10,5,5,0,1.6,-1.6,1.6,-1.6,2.2,-2.2,-2.2,2.2,None,None,,,,,,,,,0,1,1,9,,,,,,,,,,,,,,,,,,,,,,,,,,,,,,,,,,,,,0,5,5,5,,,,,,,,,24.95031299997936,,,,24.936404099978972,24.95031299997936,24.95031299997936,24.95031299997936,24.95031299997936,25.23597759997938,,25.236240499973064,25.25033079998684,25.25033079998684,25.25033079998684,25.25033079998684,25.5360190999927,,,,,,,,,,,,,,None,None,,,,,,,,,,,,,,,,,,,,,,,,,,,,,,,,,,,,,,,,,,,,,,,,,,,996964,001,2025-03-24_13h31.12.888,Estimulo_ICE,2024.2.4,61.84930664363458,2025-03-24 13h32.23.590689 -0300,
Estimulo_10,6,6,0,1.7,-1.7,1.7,-1.7,2.2,-2.2,-2.2,2.2,None,None,,,,,,,,,0,1,1,9,,,,,,,,,,,,,,,,,,,,,,,,,,,,,,,,,,,,,0,6,6,6,,,,,,,,,25.55035389997647,,,,25.536396199982846,25.55035389997647,25.55035389997647,25.55035389997647,25.55035389997647,25.836016599991126,,25.836279199982528,25.85020839999197,25.85020839999197,25.85020839999197,25.85020839999197,26.136009399982868,,,,,,,,,,,,,,None,None,,,,,,,,,,,,,,,,,,,,,,,,,,,,,,,,,,,,,,,,,,,,,,,,,,,996964,001,2025-03-24_13h31.12.888,Estimulo_ICE,2024.2.4,61.84930664363458,2025-03-24 13h32.23.590689 -0300,
Estimulo_10,7,7,0,1.8,-1.8,1.8,-1.8,2.2,-2.2,-2.2,2.2,None,None,,,,,,,,,0,1,1,9,,,,,,,,,,,,,,,,,,,,,,,,,,,,,,,,,,,,,0,7,7,7,,,,,,,,,26.15031289999024,,,,26.13638379998156,26.15031289999024,26.15031289999024,26.15031289999024,26.15031289999024,26.43588069998077,,26.43614509998588,26.450359199981904,26.450359199981904,26.450359199981904,26.450359199981904,26.735943899984704,,,,,,,,,,,,,,None,None,,,,,,,,,,,,,,,,,,,,,,,,,,,,,,,,,,,,,,,,,,,,,,,,,,,996964,001,2025-03-24_13h31.12.888,Estimulo_ICE,2024.2.4,61.84930664363458,2025-03-24 13h32.23.590689 -0300,
Estimulo_10,8,8,0,1.9,-1.9,1.9,-1.9,2.2,-2.2,-2.2,2.2,None,None,,,,,,,,,0,1,1,9,,,,,,,,,,,,,,,,,,,,,,,,,,,,,,,,,,,,,0,8,8,8,,,,,,,,,26.75054569999338,,,,26.736315799993463,26.75054569999338,26.75054569999338,26.75054569999338,26.75054569999338,27.039565999992192,,27.040132299996912,27.05152989999624,27.05152989999624,27.05152989999624,27.05152989999624,27.323334699991392,,,,,,,,,,,,,,None,None,,,,,,,,,,,,,,,,,,,,,,,,,,,,,,,,,,,,,,,,,,,,,,,,,,,996964,001,2025-03-24_13h31.12.888,Estimulo_ICE,2024.2.4,61.84930664363458,2025-03-24 13h32.23.590689 -0300,
Estimulo_10,9,9,0,2,-2,2,-2,2.2,-2.2,-2.2,2.2,None,None,,,,,,,,,0,1,1,9,,,,,,,,,,,,,,,,,,,,,,,,,,,,,,,,,,,,,0,9,9,9,,,,,,,,,27.334821799973724,,,,27.324142199999187,27.334821799973724,27.334821799973724,27.334821799973724,27.334821799973724,27.623009699978866,,27.623573699995177,27.63483749999432,27.63483749999432,27.63483749999432,27.63483749999432,27.923007499979576,,,,,,,,,,,,,,None,None,,,,,,,,,,,,,,,,,,,,,,,,,,,,,,,,,,,,,,,,,,,,,,,,,,,996964,001,2025-03-24_13h31.12.888,Estimulo_ICE,2024.2.4,61.84930664363458,2025-03-24 13h32.23.590689 -0300,
Estimulo_10,10,10,0,2.1,-2.1,2.1,-2.1,2.2,-2.2,-2.2,2.2,None,None,,,,,,,,,0,1,1,9,,,,,,,,,,,,,,,,,,,,,,,,,,,,,,,,,,,,,0,10,10,10,,,,,,,,,27.93489029997727,,,,27.923813699977472,27.93489029997727,27.93489029997727,27.93489029997727,27.93489029997727,28.23579159998917,,28.236055799992755,28.25047029997222,28.25047029997222,28.25047029997222,28.25047029997222,28.535988999996334,,,,,,,,,,,,,,None,None,,,,,,,,,,,,,,,,,,,,,,,,,,,,,,,,,,,,,,,,,,,,,,,,,,,996964,001,2025-03-24_13h31.12.888,Estimulo_ICE,2024.2.4,61.84930664363458,2025-03-24 13h32.23.590689 -0300,
Estimulo_10,11,11,0,2.2,-2.2,2.2,-2.2,2.2,-2.2,-2.2,2.2,None,None,,,,,,,,,0,1,1,9,,,,,,,,,,,,,,,,,,,,,,,,,,,,,,,,,,,,,0,11,11,11,,,,,,,,,28.550381599983666,,,,28.536362899991218,28.550381599983666,28.550381599983666,28.550381599983666,28.550381599983666,28.835805199982133,,28.836068499978865,28.85038199997507,28.85038199997507,28.85038199997507,28.85038199997507,29.136244199995417,,,,,,,,,,,,,,None,None,,,,,,,,,,,,,,,,,,,,,,,,,,,,,,,,,,,,,,,,,,,,,,,,,,,996964,001,2025-03-24_13h31.12.888,Estimulo_ICE,2024.2.4,61.84930664363458,2025-03-24 13h32.23.590689 -0300,
Estimulo_10,12,12,0,2.3,-2.3,2.3,-2.3,2.2,-2.2,-2.2,2.2,None,None,,,,,,,,,0,1,1,9,,,,,,,,,,,,,,,,,,,,,,,,,,,,,,,,,,,,,0,12,12,12,,,,,,,,,29.150434999988647,,,,29.136623300000792,29.150434999988647,29.150434999988647,29.150434999988647,29.150434999988647,29.435920199990505,,29.43618379998952,29.450511399976676,29.450511399976676,29.450511399976676,29.450511399976676,29.72476509999251,,,,,,,,,,,,,,None,None,,,,,,,,,,,,,,,,,,,,,,,,,,,,,,,,,,,,,,,,,,,,,,,,,,,996964,001,2025-03-24_13h31.12.888,Estimulo_ICE,2024.2.4,61.84930664363458,2025-03-24 13h32.23.590689 -0300,
Estimulo_10,13,13,0,2.4,-2.4,2.4,-2.4,2.2,-2.2,-2.2,2.2,None,None,,,,,,,,,0,1,1,9,,,,,,,,,,,,,,,,,,,,,,,,,,,,,,,,,,,,,0,13,13,13,,,,,,,,,29.735368099994957,,,,29.72575969999889,29.735368099994957,29.735368099994957,29.735368099994957,29.735368099994957,30.024782399996184,,30.025495099980617,30.03533559999778,30.03533559999778,30.03533559999778,30.03533559999778,30.3249066999997,,,,,,,,,,,,,,None,None,,,,,,,,,,,,,,,,,,,,,,,,,,,,,,,,,,,,,,,,,,,,,,,,,,,996964,001,2025-03-24_13h31.12.888,Estimulo_ICE,2024.2.4,61.84930664363458,2025-03-24 13h32.23.590689 -0300,
Estimulo_10,14,14,0,2.5,-2.5,2.5,-2.5,2.2,-2.2,-2.2,2.2,None,None,,,,,,,,,0,1,1,9,,,,,,,,,,,,,,,,,,,,,,,,,,,,,,,,,,,,,0,14,14,14,,,,,,,,,30.33539729999029,,,,30.325922299991362,30.33539729999029,30.33539729999029,30.33539729999029,30.33539729999029,30.624833699985174,,30.62554249999812,30.635331400000723,30.635331400000723,30.635331400000723,30.635331400000723,30.924643099977402,,,,,,,,,,,,,,None,None,,,,,,,,,,,,,,,,,,,,,,,,,,,,,,,,,,,,,,,,,,,,,,,,,,,996964,001,2025-03-24_13h31.12.888,Estimulo_ICE,2024.2.4,61.84930664363458,2025-03-24 13h32.23.590689 -0300,
Estimulo_10,15,15,0,2.6,-2.6,2.6,-2.6,2.2,-2.2,-2.2,2.2,None,None,,,,,,,,,0,1,1,9,,,,,,,,,,,,,,,,,,,,,,,,,,,,,,,,,,,,,0,15,15,15,,,,,,,,,30.935402999981306,,,,30.925652899983106,30.935402999981306,30.935402999981306,30.935402999981306,30.935402999981306,31.236372999992454,,31.236677199980477,31.25046049998491,31.25046049998491,31.25046049998491,31.25046049998491,31.536210699996445,,,,,,,,,,,,,,None,None,,,,,,,,,,,,,,,,,,,,,,,,,,,,,,,,,,,,,,,,,,,,,,,,,,,996964,001,2025-03-24_13h31.12.888,Estimulo_ICE,2024.2.4,61.84930664363458,2025-03-24 13h32.23.590689 -0300,
Estimulo_10,16,16,0,2.7,-2.7,2.7,-2.7,2.2,-2.2,-2.2,2.2,None,None,,,,,,,,,0,1,1,9,,,,,,,,,,,,,,,,,,,,,,,,,,,,,,,,,,,,,0,16,16,16,,,,,,,,,31.55058789998293,,,,31.536638599995058,31.55058789998293,31.55058789998293,31.55058789998293,31.55058789998293,31.836133599979803,,31.836431599978823,31.850502299988875,31.850502299988875,31.850502299988875,31.850502299988875,32.13625039998442,,,,,,,,,,,,,,None,None,,,,,,,,,,,,,,,,,,,,,,,,,,,,,,,,,,,,,,,,,,,,,,,,,,,996964,001,2025-03-24_13h31.12.888,Estimulo_ICE,2024.2.4,61.84930664363458,2025-03-24 13h32.23.590689 -0300,
Estimulo_10,17,17,0,2.8,-2.8,2.8,-2.8,2.2,-2.2,-2.2,2.2,None,None,,,,,,,,,0,1,1,9,,,,,,,,,,,,,,,,,,,,,,,,,,,,,,,,,,,,,0,17,17,17,,,,,,,,,32.15045599997393,,,,32.13667899998836,32.15045599997393,32.15045599997393,32.15045599997393,32.15045599997393,32.43575769997551,,32.43601589999162,32.45033219998004,32.45033219998004,32.45033219998004,32.45033219998004,32.73594409998623,,,,,,,,,,,,,,None,None,,,,,,,,,,,,,,,,,,,,,,,,,,,,,,,,,,,,,,,,,,,,,,,,,,,996964,001,2025-03-24_13h31.12.888,Estimulo_ICE,2024.2.4,61.84930664363458,2025-03-24 13h32.23.590689 -0300,
Estimulo_10,18,18,0,2.9,-2.9,2.9,-2.9,2.2,-2.2,-2.2,2.2,None,None,,,,,,,,,0,1,1,9,,,,,,,,,,,,,,,,,,,,,,,,,,,,,,,,,,,,,0,18,18,18,,,,,,,,,32.7503709999728,,,,32.73632299999008,32.7503709999728,32.7503709999728,32.7503709999728,32.7503709999728,33.03575640000054,,33.03601979999803,33.050372699974105,33.050372699974105,33.050372699974105,33.050372699974105,33.33595259999856,,,,,,,,,,,,,,None,None,,,,,,,,,,,,,,,,,,,,,,,,,,,,,,,,,,,,,,,,,,,,,,,,,,,996964,001,2025-03-24_13h31.12.888,Estimulo_ICE,2024.2.4,61.84930664363458,2025-03-24 13h32.23.590689 -0300,
Estimulo_10,19,19,0,3,-3,3,-3,2.2,-2.2,-2.2,2.2,None,None,,,,,,,,,0,1,1,9,,,,,,,,,,,,,,,,,,,,,,,,,,,,,,,,,,,,,0,19,19,19,,,,,,,,,33.3504139999859,,,,33.33632369997213,33.3504139999859,33.3504139999859,33.3504139999859,33.3504139999859,33.635753499984276,,33.63601569997263,33.65034079999896,33.65034079999896,33.65034079999896,33.65034079999896,33.935732599988114,,,,,,,,,,,,,,None,None,,,,,,,,,,,,,,,,,,,,,,,,,,,,,,,,,,,,,,,,,,,,,,,,,,,996964,001,2025-03-24_13h31.12.888,Estimulo_ICE,2024.2.4,61.84930664363458,2025-03-24 13h32.23.590689 -0300,
Estimulo_10,20,20,0,3.1,-3.1,3.1,-3.1,2.2,-2.2,-2.2,2.2,None,None,,,,,,,,,0,1,1,9,,,,,,,,,,,,,,,,,,,,,,,,,,,,,,,,,,,,,0,20,20,20,,,,,,,,,33.95048249998945,,,,33.93610919997445,33.95048249998945,33.95048249998945,33.95048249998945,33.95048249998945,34.23577219998697,,34.2360336999991,34.25031139998464,34.25031139998464,34.25031139998464,34.25031139998464,34.53593259997433,,,,,,,,,,,,,,None,None,,,,,,,,,,,,,,,,,,,,,,,,,,,,,,,,,,,,,,,,,,,,,,,,,,,996964,001,2025-03-24_13h31.12.888,Estimulo_ICE,2024.2.4,61.84930664363458,2025-03-24 13h32.23.590689 -0300,
Estimulo_10,21,21,0,3.2,-3.2,3.2,-3.2,2.2,-2.2,-2.2,2.2,None,None,,,,,,,,,0,1,1,9,,,,,,,,,,,,,,,,,,,,,,,,,,,,,,,,,,,,,0,21,21,21,,,,,,,,,34.55026530000032,,,,34.53630529998918,34.55026530000032,34.55026530000032,34.55026530000032,34.55026530000032,34.835777299973415,,34.83603939999011,34.85030929997447,34.85030929997447,34.85030929997447,34.85030929997447,35.13594209999428,,,,,,,,,,,,,,None,None,,,,,,,,,,,,,,,,,,,,,,,,,,,,,,,,,,,,,,,,,,,,,,,,,,,996964,001,2025-03-24_13h31.12.888,Estimulo_ICE,2024.2.4,61.84930664363458,2025-03-24 13h32.23.590689 -0300,
Estimulo_10,22,22,0,3.3,-3.3,3.3,-3.3,2.2,-2.2,-2.2,2.2,None,None,,,,,,,,,0,1,1,9,,,,,,,,,,,,,,,,,,,,,,,,,,,,,,,,,,,,,0,22,22,22,,,,,,,,,35.15038059998187,,,,35.13631549998536,35.15038059998187,35.15038059998187,35.15038059998187,35.15038059998187,35.435874899994815,,35.43613639997784,35.450401499983855,35.450401499983855,35.450401499983855,35.450401499983855,35.73601090000011,,,,,,,,,,,,,,None,None,,,,,,,,,,,,,,,,,,,,,,,,,,,,,,,,,,,,,,,,,,,,,,,,,,,996964,001,2025-03-24_13h31.12.888,Estimulo_ICE,2024.2.4,61.84930664363458,2025-03-24 13h32.23.590689 -0300,
Estimulo_10,23,23,0,3.4,-3.4,3.4,-3.4,2.2,-2.2,-2.2,2.2,None,None,,,,,,,,,0,1,1,9,,,,,,,,,,,,,,,,,,,,,,,,,,,,,,,,,,,,,0,23,23,23,,,,,,,,,35.75032349998946,,,,35.73638199997367,35.75032349998946,35.75032349998946,35.75032349998946,35.75032349998946,36.03593479999108,,36.0362001999747,36.050240699987626,36.050240699987626,36.050240699987626,36.050240699987626,36.33581809999305,,,,,,,,,,,,,,None,None,,,,,,,,,,,,,,,,,,,,,,,,,,,,,,,,,,,,,,,,,,,,,,,,,,,996964,001,2025-03-24_13h31.12.888,Estimulo_ICE,2024.2.4,61.84930664363458,2025-03-24 13h32.23.590689 -0300,
Estimulo_10,24,24,0,3.5,-3.5,3.5,-3.5,2.2,-2.2,-2.2,2.2,None,None,,,,,,,,,0,1,1,9,,,,,,,,,,,,,,,,,,,,,,,,,,,,,,,,,,,,,0,24,24,24,,,,,,,,,36.350466199975926,,,,36.336189499998,36.350466199975926,36.350466199975926,36.350466199975926,36.350466199975926,36.636045399995055,,36.63630799998646,36.65032169999904,36.65032169999904,36.65032169999904,36.65032169999904,36.93607269998756,,,,,,,,,,,,,,None,None,,,,,,,,,,,,,,,,,,,,,,,,,,,,,,,,,,,,,,,,,,,,,,,,,,,996964,001,2025-03-24_13h31.12.888,Estimulo_ICE,2024.2.4,61.84930664363458,2025-03-24 13h32.23.590689 -0300,
Estimulo_10,25,25,0,3.6,-3.6,3.6,-3.6,2.2,-2.2,-2.2,2.2,None,None,,,,,,,,,0,1,1,9,,,,,,,,,,,,,,,,,,,,,,,,,,,,,,,,,,,,,0,25,25,25,,,,,,,,,36.95126389997313,,,,36.936731899972074,36.95126389997313,36.95126389997313,36.95126389997313,36.95126389997313,37.23575589997927,,37.23601779999444,37.250228799995966,37.250228799995966,37.250228799995966,37.250228799995966,37.5359675999789,,,,,,,,,,,,,,None,None,,,,,,,,,,,,,,,,,,,,,,,,,,,,,,,,,,,,,,,,,,,,,,,,,,,996964,001,2025-03-24_13h31.12.888,Estimulo_ICE,2024.2.4,61.84930664363458,2025-03-24 13h32.23.590689 -0300,
Estimulo_10,26,26,0,3.7,-3.7,3.7,-3.7,2.2,-2.2,-2.2,2.2,None,None,,,,,,,,,0,1,1,9,,,,,,,,,,,,,,,,,,,,,,,,,,,,,,,,,,,,,0,26,26,26,,,,,,,,,37.550144399981946,,,,37.536342799983686,37.550144399981946,37.550144399981946,37.550144399981946,37.550144399981946,37.8358740999829,,37.836136699974304,37.850435699976515,37.850435699976515,37.850435699976515,37.850435699976515,38.13590269998531,,,,,,,,,,,,,,None,None,,,,,,,,,,,,,,,,,,,,,,,,,,,,,,,,,,,,,,,,,,,,,,,,,,,996964,001,2025-03-24_13h31.12.888,Estimulo_ICE,2024.2.4,61.84930664363458,2025-03-24 13h32.23.590689 -0300,
Estimulo_10,27,27,0,3.8,-3.8,3.8,-3.8,2.2,-2.2,-2.2,2.2,None,None,,,,,,,,,0,1,1,9,,,,,,,,,,,,,,,,,,,,,,,,,,,,,,,,,,,,,0,27,27,27,,,,,,,,,38.150285799987614,,,,38.1362752999994,38.150285799987614,38.150285799987614,38.150285799987614,38.150285799987614,38.43572499998845,,38.43598659997224,38.450305899983505,38.450305899983505,38.450305899983505,38.450305899983505,38.735948299989104,,,,,,,,,,,,,,None,None,,,,,,,,,,,,,,,,,,,,,,,,,,,,,,,,,,,,,,,,,,,,,,,,,,,996964,001,2025-03-24_13h31.12.888,Estimulo_ICE,2024.2.4,61.84930664363458,2025-03-24 13h32.23.590689 -0300,
Estimulo_10,28,28,0,3.9,-3.9,3.9,-3.9,2.2,-2.2,-2.2,2.2,None,None,,,,,,,,,0,1,1,9,,,,,,,,,,,,,,,,,,,,,,,,,,,,,,,,,,,,,0,28,28,28,,,,,,,,,38.750202099996386,,,,38.73632169998018,38.750202099996386,38.750202099996386,38.750202099996386,38.750202099996386,39.03592329999083,,39.03618809999898,39.050670399999944,39.050670399999944,39.050670399999944,39.050670399999944,39.33574039998348,,,,,,,,,,,,,,None,None,,,,,,,,,,,,,,,,,,,,,,,,,,,,,,,,,,,,,,,,,,,,,,,,,,,996964,001,2025-03-24_13h31.12.888,Estimulo_ICE,2024.2.4,61.84930664363458,2025-03-24 13h32.23.590689 -0300,
Estimulo_10,29,29,0,4,-4,4,-4,2.2,-2.2,-2.2,2.2,None,None,,,,,,,,,0,1,1,9,,,,,,,,,,,,,,,,,,,,,,,,,,,,,,,,,,,,,0,29,29,29,,,,,,,,,39.3502993999864,,,,39.33617649998632,39.3502993999864,39.3502993999864,39.3502993999864,39.3502993999864,39.63571899998351,,39.63598379999166,39.65028529998381,39.65028529998381,39.65028529998381,39.65028529998381,39.935892799985595,,,,,,,,,,,,,,None,None,,,,,,,,,,,,,,,,,,,,,,,,,,,,,,,,,,,,,,,,,,,,,,,,,,,996964,001,2025-03-24_13h31.12.888,Estimulo_ICE,2024.2.4,61.84930664363458,2025-03-24 13h32.23.590689 -0300,
Estimulo_10,30,30,0,4.1,-4.1,4.1,-4.1,2.2,-2.2,-2.2,2.2,None,None,,,,,,,,,0,1,1,9,,,,,,,,,,,,,,,,,,,,,,,,,,,,,,,,,,,,,0,30,30,30,,,,,,,,,39.95016229999601,,,,39.93626699998276,39.95016229999601,39.95016229999601,39.95016229999601,39.95016229999601,40.23570559997461,,40.23596599997836,40.250331699993694,40.250331699993694,40.250331699993694,40.250331699993694,40.535867599974154,,,,,,,,,,,,,,None,None,,,,,,,,,,,,,,,,,,,,,,,,,,,,,,,,,,,,,,,,,,,,,,,,,,,996964,001,2025-03-24_13h31.12.888,Estimulo_ICE,2024.2.4,61.84930664363458,2025-03-24 13h32.23.590689 -0300,
Estimulo_10,31,31,0,4.2,-4.2,4.2,-4.2,2.2,-2.2,-2.2,2.2,None,None,,,,,,,,,0,1,1,9,,,,,,,,,,,,,,,,,,,,,,,,,,,,,,,,,,,,,0,31,31,31,,,,,,,,,40.55007759999717,,,,40.53624009998748,40.55007759999717,40.55007759999717,40.55007759999717,40.55007759999717,40.835869799979264,,40.836133099975996,40.850240699975984,40.850240699975984,40.850240699975984,40.850240699975984,41.13576989999274,,,,,,,,,,,,,,None,None,,,,,,,,,,,,,,,,,,,,,,,,,,,,,,,,,,,,,,,,,,,,,,,,,,,996964,001,2025-03-24_13h31.12.888,Estimulo_ICE,2024.2.4,61.84930664363458,2025-03-24 13h32.23.590689 -0300,
Estimulo_10,32,32,0,4.3,-4.3,4.3,-4.3,2.2,-2.2,-2.2,2.2,None,None,,,,,,,,,0,1,1,9,,,,,,,,,,,,,,,,,,,,,,,,,,,,,,,,,,,,,0,32,32,32,,,,,,,,,41.15031129997806,,,,41.136144899996,41.15031129997806,41.15031129997806,41.15031129997806,41.15031129997806,41.43569909999496,,41.43596259999322,41.45027079997817,41.45027079997817,41.45027079997817,41.45027079997817,41.73584449998452,,,,,,,,,,,,,,None,None,,,,,,,,,,,,,,,,,,,,,,,,,,,,,,,,,,,,,,,,,,,,,,,,,,,996964,001,2025-03-24_13h31.12.888,Estimulo_ICE,2024.2.4,61.84930664363458,2025-03-24 13h32.23.590689 -0300,
Estimulo_10,33,33,0,4.4,-4.4,4.4,-4.4,2.2,-2.2,-2.2,2.2,None,None,,,,,,,,,0,1,1,9,,,,,,,,,,,,,,,,,,,,,,,,,,,,,,,,,,,,,0,33,33,33,,,,,,,,,41.75026999998954,,,,41.73622019999311,41.75026999998954,41.75026999998954,41.75026999998954,41.75026999998954,42.03579119997448,,42.03605819999939,42.05025089997798,42.05025089997798,42.05025089997798,42.05025089997798,42.33599619998131,,,,,,,,,,,,,,None,None,,,,,,,,,,,,,,,,,,,,,,,,,,,,,,,,,,,,,,,,,,,,,,,,,,,996964,001,2025-03-24_13h31.12.888,Estimulo_ICE,2024.2.4,61.84930664363458,2025-03-24 13h32.23.590689 -0300,
Estimulo_10,1,1,0,,,,,,,,,,,,,,,,,,,0,1,1,9,,,,,,,,,,,,,,,,,,,,,,,,,,,,,,,,,,,,,,,,,,,,,,,,,,,,,,,,,,,,,,,,,,,,,,,,,,,42.3657155999972,42.38309859999572,,43.823255499999505,,,,,,,,,,,,,,,,,,,,,,,,,,,,,,,,,,,,,,,,,,,,,,,,,,,,,996964,001,2025-03-24_13h31.12.888,Estimulo_ICE,2024.2.4,61.84930664363458,2025-03-24 13h32.23.590689 -0300,
Estimulo_5,0,0,0,4.4,-4.4,4.4,-4.4,2.2,-2.2,-2.2,2.2,,,None,None,,,,,,,0,2,2,4,,,,,,,,,,,,,,,,,0,0,0,0,,,,,,,,,,,,,,,,,,,,,,,,,,,,,43.91640329998336,,43.823512199975085,43.82422929999302,,,,,,,,,,,,,,,,,,,,,,,,,,,,,43.90457719998085,43.91640329998336,43.91640329998336,43.91640329998336,43.91640329998336,44.11972029999015,None,44.119969799998216,44.133593499980634,44.133593499980634,44.133593499980634,44.133593499980634,44.433618699986255,44.433618699986255,44.433618699986255,44.433618699986255,44.41932889999589,None,,,,,,,,,,,,,,,,,,,,,,,,,,,,,,,,,996964,001,2025-03-24_13h31.12.888,Estimulo_ICE,2024.2.4,61.84930664363458,2025-03-24 13h32.23.590689 -0300,
Estimulo_5,1,1,0,4.3,-4.3,4.3,-4.3,2.2,-2.2,-2.2,2.2,,,None,None,,,,,,,0,2,2,4,,,,,,,,,,,,,,,,,0,1,1,1,,,,,,,,,,,,,,,,,,,,,,,,,,,,,44.433618699986255,,,,,,,,,,,,,,,,,,,,,,,,,,,,,,,,44.41971869999543,44.433618699986255,44.433618699986255,44.433618699986255,44.433618699986255,44.722077899990836,None,44.722560299996985,44.73422329997993,44.73422329997993,44.73422329997993,44.73422329997993,45.0334946999792,45.0334946999792,45.0334946999792,45.0334946999792,45.01999769997201,None,44.73422329997993,44.73422329997993,44.73422329997993,44.73422329997993,,,,,,,,,,,,,,,,,,,,,,,,,,,,,996964,001,2025-03-24_13h31.12.888,Estimulo_ICE,2024.2.4,61.84930664363458,2025-03-24 13h32.23.590689 -0300,
Estimulo_5,2,2,0,4.2,-4.2,4.2,-4.2,2.2,-2.2,-2.2,2.2,,,None,None,,,,,,,0,2,2,4,,,,,,,,,,,,,,,,,0,2,2,2,,,,,,,,,,,,,,,,,,,,,,,,,,,,,45.0334946999792,,,,,,,,,,,,,,,,,,,,,,,,,,,,,,,,45.02044899997418,45.0334946999792,45.0334946999792,45.0334946999792,45.0334946999792,45.32008969999151,None,45.32041129999561,45.33374069997808,45.33374069997808,45.33374069997808,45.33374069997808,45.63367529999232,45.63367529999232,45.63367529999232,45.63367529999232,45.6196052999876,None,45.33374069997808,45.33374069997808,45.33374069997808,45.33374069997808,,,,,,,,,,,,,,,,,,,,,,,,,,,,,996964,001,2025-03-24_13h31.12.888,Estimulo_ICE,2024.2.4,61.84930664363458,2025-03-24 13h32.23.590689 -0300,
Estimulo_5,3,3,0,4.1,-4.1,4.1,-4.1,2.2,-2.2,-2.2,2.2,,,None,None,,,,,,,0,2,2,4,,,,,,,,,,,,,,,,,0,3,3,3,,,,,,,,,,,,,,,,,,,,,,,,,,,,,45.63367529999232,,,,,,,,,,,,,,,,,,,,,,,,,,,,,,,,45.61998599997605,45.63367529999232,45.63367529999232,45.63367529999232,45.63367529999232,45.919436999975005,None,45.919714699994074,45.93354729999555,45.93354729999555,45.93354729999555,45.93354729999555,46.23366030000034,46.23366030000034,46.23366030000034,46.23366030000034,46.219654799991986,None,45.93354729999555,45.93354729999555,45.93354729999555,45.93354729999555,,,,,,,,,,,,,,,,,,,,,,,,,,,,,996964,001,2025-03-24_13h31.12.888,Estimulo_ICE,2024.2.4,61.84930664363458,2025-03-24 13h32.23.590689 -0300,
Estimulo_5,4,4,0,4,-4,4,-4,2.2,-2.2,-2.2,2.2,,,None,None,,,,,,,0,2,2,4,,,,,,,,,,,,,,,,,0,4,4,4,,,,,,,,,,,,,,,,,,,,,,,,,,,,,46.23366030000034,,,,,,,,,,,,,,,,,,,,,,,,,,,,,,,,46.220032199984416,46.23366030000034,46.23366030000034,46.23366030000034,46.23366030000034,46.51964829998906,None,46.519924599997466,46.533557899994776,46.533557899994776,46.533557899994776,46.533557899994776,46.833559999999125,46.833559999999125,46.833559999999125,46.833559999999125,46.81940459998441,None,46.533557899994776,46.533557899994776,46.533557899994776,46.533557899994776,,,,,,,,,,,,,,,,,,,,,,,,,,,,,996964,001,2025-03-24_13h31.12.888,Estimulo_ICE,2024.2.4,61.84930664363458,2025-03-24 13h32.23.590689 -0300,
Estimulo_5,5,5,0,3.9,-3.9,3.9,-3.9,2.2,-2.2,-2.2,2.2,,,None,None,,,,,,,0,2,2,4,,,,,,,,,,,,,,,,,0,5,5,5,,,,,,,,,,,,,,,,,,,,,,,,,,,,,46.833559999999125,,,,,,,,,,,,,,,,,,,,,,,,,,,,,,,,46.81985349999741,46.833559999999125,46.833559999999125,46.833559999999125,46.833559999999125,47.119407799997134,None,47.119684499979485,47.13352319999831,47.13352319999831,47.13352319999831,47.13352319999831,47.43355189997237,47.43355189997237,47.43355189997237,47.43355189997237,47.41941829997813,None,47.13352319999831,47.13352319999831,47.13352319999831,47.13352319999831,,,,,,,,,,,,,,,,,,,,,,,,,,,,,996964,001,2025-03-24_13h31.12.888,Estimulo_ICE,2024.2.4,61.84930664363458,2025-03-24 13h32.23.590689 -0300,
Estimulo_5,6,6,0,3.8,-3.8,3.8,-3.8,2.2,-2.2,-2.2,2.2,,,None,None,,,,,,,0,2,2,4,,,,,,,,,,,,,,,,,0,6,6,6,,,,,,,,,,,,,,,,,,,,,,,,,,,,,47.43355189997237,,,,,,,,,,,,,,,,,,,,,,,,,,,,,,,,47.41981089999899,47.43355189997237,47.43355189997237,47.43355189997237,47.43355189997237,47.71948689999408,None,47.71975530000054,47.733575599995675,47.733575599995675,47.733575599995675,47.733575599995675,48.03352569998242,48.03352569998242,48.03352569998242,48.03352569998242,48.019341299979715,None,47.733575599995675,47.733575599995675,47.733575599995675,47.733575599995675,,,,,,,,,,,,,,,,,,,,,,,,,,,,,996964,001,2025-03-24_13h31.12.888,Estimulo_ICE,2024.2.4,61.84930664363458,2025-03-24 13h32.23.590689 -0300,
Estimulo_5,7,7,0,3.7,-3.7,3.7,-3.7,2.2,-2.2,-2.2,2.2,,,None,None,,,,,,,0,2,2,4,,,,,,,,,,,,,,,,,0,7,7,7,,,,,,,,,,,,,,,,,,,,,,,,,,,,,48.03352569998242,,,,,,,,,,,,,,,,,,,,,,,,,,,,,,,,48.01969509999617,48.03352569998242,48.03352569998242,48.03352569998242,48.03352569998242,48.319387199997436,None,48.31966399998055,48.33369489997858,48.33369489997858,48.33369489997858,48.33369489997858,48.633548899990274,48.633548899990274,48.633548899990274,48.633548899990274,48.619391599990195,None,48.33369489997858,48.33369489997858,48.33369489997858,48.33369489997858,,,,,,,,,,,,,,,,,,,,,,,,,,,,,996964,001,2025-03-24_13h31.12.888,Estimulo_ICE,2024.2.4,61.84930664363458,2025-03-24 13h32.23.590689 -0300,
Estimulo_5,8,8,0,3.6,-3.6,3.6,-3.6,2.2,-2.2,-2.2,2.2,,,None,None,,,,,,,0,2,2,4,,,,,,,,,,,,,,,,,0,8,8,8,,,,,,,,,,,,,,,,,,,,,,,,,,,,,48.633548899990274,,,,,,,,,,,,,,,,,,,,,,,,,,,,,,,,48.6197832999751,48.633548899990274,48.633548899990274,48.633548899990274,48.633548899990274,48.91950989997713,None,48.91978649998782,48.933523699990474,48.933523699990474,48.933523699990474,48.933523699990474,49.233543099981034,49.233543099981034,49.233543099981034,49.233543099981034,49.21938599998248,None,48.933523699990474,48.933523699990474,48.933523699990474,48.933523699990474,,,,,,,,,,,,,,,,,,,,,,,,,,,,,996964,001,2025-03-24_13h31.12.888,Estimulo_ICE,2024.2.4,61.84930664363458,2025-03-24 13h32.23.590689 -0300,
Estimulo_5,9,9,0,3.5,-3.5,3.5,-3.5,2.2,-2.2,-2.2,2.2,,,None,None,,,,,,,0,2,2,4,,,,,,,,,,,,,,,,,0,9,9,9,,,,,,,,,,,,,,,,,,,,,,,,,,,,,49.233543099981034,,,,,,,,,,,,,,,,,,,,,,,,,,,,,,,,49.21977949998109,49.233543099981034,49.233543099981034,49.233543099981034,49.233543099981034,49.519686599989654,None,49.51996449998114,49.53364059998421,49.53364059998421,49.53364059998421,49.53364059998421,49.833571199997095,49.833571199997095,49.833571199997095,49.833571199997095,49.819479099998716,None,49.53364059998421,49.53364059998421,49.53364059998421,49.53364059998421,,,,,,,,,,,,,,,,,,,,,,,,,,,,,996964,001,2025-03-24_13h31.12.888,Estimulo_ICE,2024.2.4,61.84930664363458,2025-03-24 13h32.23.590689 -0300,
Estimulo_5,10,10,0,3.39999999999999,-3.39999999999999,3.39999999999999,-3.39999999999999,2.2,-2.2,-2.2,2.2,,,None,None,,,,,,,0,2,2,4,,,,,,,,,,,,,,,,,0,10,10,10,,,,,,,,,,,,,,,,,,,,,,,,,,,,,49.833571199997095,,,,,,,,,,,,,,,,,,,,,,,,,,,,,,,,49.81987479998497,49.833571199997095,49.833571199997095,49.833571199997095,49.833571199997095,50.11943279998377,None,50.11970089998795,50.13352929998655,50.13352929998655,50.13352929998655,50.13352929998655,50.43352199997753,50.43352199997753,50.43352199997753,50.43352199997753,50.41943449998507,None,50.13352929998655,50.13352929998655,50.13352929998655,50.13352929998655,,,,,,,,,,,,,,,,,,,,,,,,,,,,,996964,001,2025-03-24_13h31.12.888,Estimulo_ICE,2024.2.4,61.84930664363458,2025-03-24 13h32.23.590689 -0300,
Estimulo_5,11,11,0,3.29999999999999,-3.29999999999999,3.29999999999999,-3.29999999999999,2.2,-2.2,-2.2,2.2,,,None,None,,,,,,,0,2,2,4,,,,,,,,,,,,,,,,,0,11,11,11,,,,,,,,,,,,,,,,,,,,,,,,,,,,,50.43352199997753,,,,,,,,,,,,,,,,,,,,,,,,,,,,,,,,50.41981419999502,50.43352199997753,50.43352199997753,50.43352199997753,50.43352199997753,50.71948499997961,None,50.71976069998345,50.73361009999644,50.73361009999644,50.73361009999644,50.73361009999644,51.03351459998521,51.03351459998521,51.03351459998521,51.03351459998521,51.01938029998564,None,50.73361009999644,50.73361009999644,50.73361009999644,50.73361009999644,,,,,,,,,,,,,,,,,,,,,,,,,,,,,996964,001,2025-03-24_13h31.12.888,Estimulo_ICE,2024.2.4,61.84930664363458,2025-03-24 13h32.23.590689 -0300,
Estimulo_5,12,12,0,3.19999999999999,-3.19999999999999,3.19999999999999,-3.19999999999999,2.2,-2.2,-2.2,2.2,,,None,None,,,,,,,0,2,2,4,,,,,,,,,,,,,,,,,0,12,12,12,,,,,,,,,,,,,,,,,,,,,,,,,,,,,51.03351459998521,,,,,,,,,,,,,,,,,,,,,,,,,,,,,,,,51.01977439998882,51.03351459998521,51.03351459998521,51.03351459998521,51.03351459998521,51.31952709998586,None,51.31980339999427,51.33363149999059,51.33363149999059,51.33363149999059,51.33363149999059,51.63354679997428,51.63354679997428,51.63354679997428,51.63354679997428,51.619509499985725,None,51.33363149999059,51.33363149999059,51.33363149999059,51.33363149999059,,,,,,,,,,,,,,,,,,,,,,,,,,,,,996964,001,2025-03-24_13h31.12.888,Estimulo_ICE,2024.2.4,61.84930664363458,2025-03-24 13h32.23.590689 -0300,
Estimulo_5,13,13,0,3.09999999999999,-3.09999999999999,3.09999999999999,-3.09999999999999,2.2,-2.2,-2.2,2.2,,,None,None,,,,,,,0,2,2,4,,,,,,,,,,,,,,,,,0,13,13,13,,,,,,,,,,,,,,,,,,,,,,,,,,,,,51.63354679997428,,,,,,,,,,,,,,,,,,,,,,,,,,,,,,,,51.61990189997596,51.63354679997428,51.63354679997428,51.63354679997428,51.63354679997428,51.91943279997213,None,51.91971069999272,51.933552799979225,51.933552799979225,51.933552799979225,51.933552799979225,52.23361830000067,52.23361830000067,52.23361830000067,52.23361830000067,52.219478399987565,None,51.933552799979225,51.933552799979225,51.933552799979225,51.933552799979225,,,,,,,,,,,,,,,,,,,,,,,,,,,,,996964,001,2025-03-24_13h31.12.888,Estimulo_ICE,2024.2.4,61.84930664363458,2025-03-24 13h32.23.590689 -0300,
Estimulo_5,14,14,0,2.99999999999999,-2.99999999999999,2.99999999999999,-2.99999999999999,2.2,-2.2,-2.2,2.2,,,None,None,,,,,,,0,2,2,4,,,,,,,,,,,,,,,,,0,14,14,14,,,,,,,,,,,,,,,,,,,,,,,,,,,,,52.23361830000067,,,,,,,,,,,,,,,,,,,,,,,,,,,,,,,,52.21987380000064,52.23361830000067,52.23361830000067,52.23361830000067,52.23361830000067,52.519576799997594,None,52.51985639997292,52.533611899998505,52.533611899998505,52.533611899998505,52.533611899998505,52.833484599977965,52.833484599977965,52.833484599977965,52.833484599977965,52.81946219998645,None,52.533611899998505,52.533611899998505,52.533611899998505,52.533611899998505,,,,,,,,,,,,,,,,,,,,,,,,,,,,,996964,001,2025-03-24_13h31.12.888,Estimulo_ICE,2024.2.4,61.84930664363458,2025-03-24 13h32.23.590689 -0300,
Estimulo_5,15,15,0,2.89999999999999,-2.89999999999999,2.89999999999999,-2.89999999999999,2.2,-2.2,-2.2,2.2,,,None,None,,,,,,,0,2,2,4,,,,,,,,,,,,,,,,,0,15,15,15,,,,,,,,,,,,,,,,,,,,,,,,,,,,,52.833484599977965,,,,,,,,,,,,,,,,,,,,,,,,,,,,,,,,52.81985449997592,52.833484599977965,52.833484599977965,52.833484599977965,52.833484599977965,53.119495999999344,None,53.119772699981695,53.13354239999899,53.13354239999899,53.13354239999899,53.13354239999899,53.43364350000047,53.43364350000047,53.43364350000047,53.43364350000047,53.419571799982805,None,53.13354239999899,53.13354239999899,53.13354239999899,53.13354239999899,,,,,,,,,,,,,,,,,,,,,,,,,,,,,996964,001,2025-03-24_13h31.12.888,Estimulo_ICE,2024.2.4,61.84930664363458,2025-03-24 13h32.23.590689 -0300,
Estimulo_5,16,16,0,2.79999999999999,-2.79999999999999,2.79999999999999,-2.79999999999999,2.2,-2.2,-2.2,2.2,,,None,None,,,,,,,0,2,2,4,,,,,,,,,,,,,,,,,0,16,16,16,,,,,,,,,,,,,,,,,,,,,,,,,,,,,53.43364350000047,,,,,,,,,,,,,,,,,,,,,,,,,,,,,,,,53.41996889997972,53.43364350000047,53.43364350000047,53.43364350000047,53.43364350000047,53.7195429999847,None,53.71980500000063,53.734075199987274,53.734075199987274,53.734075199987274,53.734075199987274,54.03391019999981,54.03391019999981,54.03391019999981,54.03391019999981,54.019669699977385,None,53.734075199987274,53.734075199987274,53.734075199987274,53.734075199987274,,,,,,,,,,,,,,,,,,,,,,,,,,,,,996964,001,2025-03-24_13h31.12.888,Estimulo_ICE,2024.2.4,61.84930664363458,2025-03-24 13h32.23.590689 -0300,
Estimulo_5,17,17,0,2.69999999999999,-2.69999999999999,2.69999999999999,-2.69999999999999,2.2,-2.2,-2.2,2.2,,,None,None,,,,,,,0,2,2,4,,,,,,,,,,,,,,,,,0,17,17,17,,,,,,,,,,,,,,,,,,,,,,,,,,,,,54.03391019999981,,,,,,,,,,,,,,,,,,,,,,,,,,,,,,,,54.02005019999342,54.03391019999981,54.03391019999981,54.03391019999981,54.03391019999981,54.320307799993316,None,54.32058979998692,54.33448769999086,54.33448769999086,54.33448769999086,54.33448769999086,54.63362349997624,54.63362349997624,54.63362349997624,54.63362349997624,54.61947559998953,None,54.33448769999086,54.33448769999086,54.33448769999086,54.33448769999086,,,,,,,,,,,,,,,,,,,,,,,,,,,,,996964,001,2025-03-24_13h31.12.888,Estimulo_ICE,2024.2.4,61.84930664363458,2025-03-24 13h32.23.590689 -0300,
Estimulo_5,18,18,0,2.59999999999999,-2.59999999999999,2.59999999999999,-2.59999999999999,2.2,-2.2,-2.2,2.2,,,None,None,,,,,,,0,2,2,4,,,,,,,,,,,,,,,,,0,18,18,18,,,,,,,,,,,,,,,,,,,,,,,,,,,,,54.63362349997624,,,,,,,,,,,,,,,,,,,,,,,,,,,,,,,,54.619869599991944,54.63362349997624,54.63362349997624,54.63362349997624,54.63362349997624,54.9195963999955,None,54.91987439998775,54.933576399984304,54.933576399984304,54.933576399984304,54.933576399984304,55.233317099977285,55.233317099977285,55.233317099977285,55.233317099977285,55.219956399989314,None,54.933576399984304,54.933576399984304,54.933576399984304,54.933576399984304,,,,,,,,,,,,,,,,,,,,,,,,,,,,,996964,001,2025-03-24_13h31.12.888,Estimulo_ICE,2024.2.4,61.84930664363458,2025-03-24 13h32.23.590689 -0300,
Estimulo_5,19,19,0,2.49999999999999,-2.49999999999999,2.49999999999999,-2.49999999999999,2.2,-2.2,-2.2,2.2,,,None,None,,,,,,,0,2,2,4,,,,,,,,,,,,,,,,,0,19,19,19,,,,,,,,,,,,,,,,,,,,,,,,,,,,,55.233317099977285,,,,,,,,,,,,,,,,,,,,,,,,,,,,,,,,55.22041999999783,55.233317099977285,55.233317099977285,55.233317099977285,55.233317099977285,55.51950859997305,None,55.51975449998281,55.53364959999453,55.53364959999453,55.53364959999453,55.53364959999453,55.83375369998976,55.83375369998976,55.83375369998976,55.83375369998976,55.8194899999944,None,55.53364959999453,55.53364959999453,55.53364959999453,55.53364959999453,,,,,,,,,,,,,,,,,,,,,,,,,,,,,996964,001,2025-03-24_13h31.12.888,Estimulo_ICE,2024.2.4,61.84930664363458,2025-03-24 13h32.23.590689 -0300,
Estimulo_5,20,20,0,2.39999999999999,-2.39999999999999,2.39999999999999,-2.39999999999999,2.2,-2.2,-2.2,2.2,,,None,None,,,,,,,0,2,2,4,,,,,,,,,,,,,,,,,0,20,20,20,,,,,,,,,,,,,,,,,,,,,,,,,,,,,55.83375369998976,,,,,,,,,,,,,,,,,,,,,,,,,,,,,,,,55.81989379998413,55.83375369998976,55.83375369998976,55.83375369998976,55.83375369998976,56.11955059997854,None,56.11980029998813,56.13365219999105,56.13365219999105,56.13365219999105,56.13365219999105,56.4334886999859,56.4334886999859,56.4334886999859,56.4334886999859,56.419607299991185,None,56.13365219999105,56.13365219999105,56.13365219999105,56.13365219999105,,,,,,,,,,,,,,,,,,,,,,,,,,,,,996964,001,2025-03-24_13h31.12.888,Estimulo_ICE,2024.2.4,61.84930664363458,2025-03-24 13h32.23.590689 -0300,
Estimulo_5,21,21,0,2.29999999999999,-2.29999999999999,2.29999999999999,-2.29999999999999,2.2,-2.2,-2.2,2.2,,,None,None,,,,,,,0,2,2,4,,,,,,,,,,,,,,,,,0,21,21,21,,,,,,,,,,,,,,,,,,,,,,,,,,,,,56.4334886999859,,,,,,,,,,,,,,,,,,,,,,,,,,,,,,,,56.41995069998666,56.4334886999859,56.4334886999859,56.4334886999859,56.4334886999859,56.71937339997385,None,56.71963189999224,56.73347989999456,56.73347989999456,56.73347989999456,56.73347989999456,57.03350739998859,57.03350739998859,57.03350739998859,57.03350739998859,57.01931689999765,None,56.73347989999456,56.73347989999456,56.73347989999456,56.73347989999456,,,,,,,,,,,,,,,,,,,,,,,,,,,,,996964,001,2025-03-24_13h31.12.888,Estimulo_ICE,2024.2.4,61.84930664363458,2025-03-24 13h32.23.590689 -0300,
Estimulo_5,22,22,0,2.19999999999999,-2.19999999999999,2.19999999999999,-2.19999999999999,2.2,-2.2,-2.2,2.2,,,None,None,,,,,,,0,2,2,4,,,,,,,,,,,,,,,,,0,22,22,22,,,,,,,,,,,,,,,,,,,,,,,,,,,,,57.03350739998859,,,,,,,,,,,,,,,,,,,,,,,,,,,,,,,,57.01969159999862,57.03350739998859,57.03350739998859,57.03350739998859,57.03350739998859,57.32308979998925,None,57.323657499975525,57.33451529999729,57.33451529999729,57.33451529999729,57.33451529999729,57.63429959997302,57.63429959997302,57.63429959997302,57.63429959997302,57.623115399997914,None,57.33451529999729,57.33451529999729,57.33451529999729,57.33451529999729,,,,,,,,,,,,,,,,,,,,,,,,,,,,,996964,001,2025-03-24_13h31.12.888,Estimulo_ICE,2024.2.4,61.84930664363458,2025-03-24 13h32.23.590689 -0300,
Estimulo_5,23,23,0,2.09999999999999,-2.09999999999999,2.09999999999999,-2.09999999999999,2.2,-2.2,-2.2,2.2,,,None,None,,,,,,,0,2,2,4,,,,,,,,,,,,,,,,,0,23,23,23,,,,,,,,,,,,,,,,,,,,,,,,,,,,,57.63429959997302,,,,,,,,,,,,,,,,,,,,,,,,,,,,,,,,57.623919099976774,57.63429959997302,57.63429959997302,57.63429959997302,57.63429959997302,57.91937869999674,None,57.91966219997266,57.9334542999859,57.9334542999859,57.9334542999859,57.9334542999859,58.23349259997485,58.23349259997485,58.23349259997485,58.23349259997485,58.21933339998941,None,57.9334542999859,57.9334542999859,57.9334542999859,57.9334542999859,,,,,,,,,,,,,,,,,,,,,,,,,,,,,996964,001,2025-03-24_13h31.12.888,Estimulo_ICE,2024.2.4,61.84930664363458,2025-03-24 13h32.23.590689 -0300,
Estimulo_5,24,24,0,1.99999999999999,-1.99999999999999,1.99999999999999,-1.99999999999999,2.2,-2.2,-2.2,2.2,,,None,None,,,,,,,0,2,2,4,,,,,,,,,,,,,,,,,0,24,24,24,,,,,,,,,,,,,,,,,,,,,,,,,,,,,58.23349259997485,,,,,,,,,,,,,,,,,,,,,,,,,,,,,,,,58.21968659997219,58.23349259997485,58.23349259997485,58.23349259997485,58.23349259997485,58.51919709998765,None,58.51947369999834,58.53344689999358,58.53344689999358,58.53344689999358,58.53344689999358,58.833265099994605,58.833265099994605,58.833265099994605,58.833265099994605,58.81931659998372,None,58.53344689999358,58.53344689999358,58.53344689999358,58.53344689999358,,,,,,,,,,,,,,,,,,,,,,,,,,,,,996964,001,2025-03-24_13h31.12.888,Estimulo_ICE,2024.2.4,61.84930664363458,2025-03-24 13h32.23.590689 -0300,
Estimulo_5,25,25,0,1.89999999999999,-1.89999999999999,1.89999999999999,-1.89999999999999,2.2,-2.2,-2.2,2.2,,,None,None,,,,,,,0,2,2,4,,,,,,,,,,,,,,,,,0,25,25,25,,,,,,,,,,,,,,,,,,,,,,,,,,,,,58.833265099994605,,,,,,,,,,,,,,,,,,,,,,,,,,,,,,,,58.81975459997193,58.833265099994605,58.833265099994605,58.833265099994605,58.833265099994605,59.11941349998233,None,59.119692699983716,59.133636399987154,59.133636399987154,59.133636399987154,59.133636399987154,59.433547499997076,59.433547499997076,59.433547499997076,59.433547499997076,59.419974299991736,None,59.133636399987154,59.133636399987154,59.133636399987154,59.133636399987154,,,,,,,,,,,,,,,,,,,,,,,,,,,,,996964,001,2025-03-24_13h31.12.888,Estimulo_ICE,2024.2.4,61.84930664363458,2025-03-24 13h32.23.590689 -0300,
Estimulo_5,26,26,0,1.79999999999999,-1.79999999999999,1.79999999999999,-1.79999999999999,2.2,-2.2,-2.2,2.2,,,None,None,,,,,,,0,2,2,4,,,,,,,,,,,,,,,,,0,26,26,26,,,,,,,,,,,,,,,,,,,,,,,,,,,,,59.433547499997076,,,,,,,,,,,,,,,,,,,,,,,,,,,,,,,,59.42032239999389,59.433547499997076,59.433547499997076,59.433547499997076,59.433547499997076,59.71955249999883,None,59.71983319998253,59.733508299977984,59.733508299977984,59.733508299977984,59.733508299977984,60.033406099973945,60.033406099973945,60.033406099973945,60.033406099973945,60.020132899982855,None,59.733508299977984,59.733508299977984,59.733508299977984,59.733508299977984,,,,,,,,,,,,,,,,,,,,,,,,,,,,,996964,001,2025-03-24_13h31.12.888,Estimulo_ICE,2024.2.4,61.84930664363458,2025-03-24 13h32.23.590689 -0300,
Estimulo_5,27,27,0,1.69999999999999,-1.69999999999999,1.69999999999999,-1.69999999999999,2.2,-2.2,-2.2,2.2,,,None,None,,,,,,,0,2,2,4,,,,,,,,,,,,,,,,,0,27,27,27,,,,,,,,,,,,,,,,,,,,,,,,,,,,,60.033406099973945,,,,,,,,,,,,,,,,,,,,,,,,,,,,,,,,60.020546399988234,60.033406099973945,60.033406099973945,60.033406099973945,60.033406099973945,60.319321199989645,None,60.31957079999847,60.33335459997761,60.33335459997761,60.33335459997761,60.33335459997761,60.63357539998833,60.63357539998833,60.63357539998833,60.63357539998833,60.619426399993245,None,60.33335459997761,60.33335459997761,60.33335459997761,60.33335459997761,,,,,,,,,,,,,,,,,,,,,,,,,,,,,996964,001,2025-03-24_13h31.12.888,Estimulo_ICE,2024.2.4,61.84930664363458,2025-03-24 13h32.23.590689 -0300,
Estimulo_5,28,28,0,1.59999999999999,-1.59999999999999,1.59999999999999,-1.59999999999999,2.2,-2.2,-2.2,2.2,,,None,None,,,,,,,0,2,2,4,,,,,,,,,,,,,,,,,0,28,28,28,,,,,,,,,,,,,,,,,,,,,,,,,,,,,60.63357539998833,,,,,,,,,,,,,,,,,,,,,,,,,,,,,,,,60.6198295999784,60.63357539998833,60.63357539998833,60.63357539998833,60.63357539998833,60.91940309997881,None,60.919683699990856,60.933432599995285,60.933432599995285,60.933432599995285,60.933432599995285,61.23324709999724,61.23324709999724,61.23324709999724,61.23324709999724,61.219402099988656,None,60.933432599995285,60.933432599995285,60.933432599995285,60.933432599995285,,,,,,,,,,,,,,,,,,,,,,,,,,,,,996964,001,2025-03-24_13h31.12.888,Estimulo_ICE,2024.2.4,61.84930664363458,2025-03-24 13h32.23.590689 -0300,
Estimulo_5,29,29,0,1.49999999999999,-1.49999999999998,1.49999999999999,-1.49999999999998,2.2,-2.2,-2.2,2.2,,,None,None,,,,,,,0,2,2,4,,,,,,,,,,,,,,,,,0,29,29,29,,,,,,,,,,,,,,,,,,,,,,,,,,,,,61.23324709999724,,,,,,,,,,,,,,,,,,,,,,,,,,,,,,,,61.219794999982696,61.23324709999724,61.23324709999724,61.23324709999724,61.23324709999724,61.51983009997639,None,61.520151399978204,61.53352329999325,61.53352329999325,61.53352329999325,61.53352329999325,61.83364399999846,61.83364399999846,61.83364399999846,61.83364399999846,61.82193759997608,None,61.53352329999325,61.53352329999325,61.53352329999325,61.53352329999325,,,,,,,,,,,,,,,,,,,,,,,,,,,,,996964,001,2025-03-24_13h31.12.888,Estimulo_ICE,2024.2.4,61.84930664363458,2025-03-24 13h32.23.590689 -0300,
Estimulo_5,30,30,0,1.39999999999999,-1.39999999999998,1.39999999999999,-1.39999999999998,2.2,-2.2,-2.2,2.2,,,None,None,,,,,,,0,2,2,4,,,,,,,,,,,,,,,,,0,30,30,30,,,,,,,,,,,,,,,,,,,,,,,,,,,,,61.83364399999846,,,,,,,,,,,,,,,,,,,,,,,,,,,,,,,,61.82239829999162,61.83364399999846,61.83364399999846,61.83364399999846,61.83364399999846,62.119920999975875,None,62.1202445999952,62.13367389998166,62.13367389998166,62.13367389998166,62.13367389998166,62.433714999991935,62.433714999991935,62.433714999991935,62.433714999991935,62.41995699997642,None,62.13367389998166,62.13367389998166,62.13367389998166,62.13367389998166,,,,,,,,,,,,,,,,,,,,,,,,,,,,,996964,001,2025-03-24_13h31.12.888,Estimulo_ICE,2024.2.4,61.84930664363458,2025-03-24 13h32.23.590689 -0300,
Estimulo_5,31,31,0,1.29999999999999,-1.29999999999998,1.29999999999999,-1.29999999999998,2.2,-2.2,-2.2,2.2,,,None,None,,,,,,,0,2,2,4,,,,,,,,,,,,,,,,,0,31,31,31,,,,,,,,,,,,,,,,,,,,,,,,,,,,,62.433714999991935,,,,,,,,,,,,,,,,,,,,,,,,,,,,,,,,62.420422799972584,62.433714999991935,62.433714999991935,62.433714999991935,62.433714999991935,62.720007699972484,None,62.72033499999088,62.733758099988336,62.733758099988336,62.733758099988336,62.733758099988336,63.03326929998002,63.03326929998002,63.03326929998002,63.03326929998002,63.01940559997456,None,62.733758099988336,62.733758099988336,62.733758099988336,62.733758099988336,,,,,,,,,,,,,,,,,,,,,,,,,,,,,996964,001,2025-03-24_13h31.12.888,Estimulo_ICE,2024.2.4,61.84930664363458,2025-03-24 13h32.23.590689 -0300,
Estimulo_5,32,32,0,1.19999999999999,-1.19999999999998,1.19999999999999,-1.19999999999998,2.2,-2.2,-2.2,2.2,,,None,None,,,,,,,0,2,2,4,,,,,,,,,,,,,,,,,0,32,32,32,,,,,,,,,,,,,,,,,,,,,,,,,,,,,63.03326929998002,,,,,,,,,,,,,,,,,,,,,,,,,,,,,,,,63.01980049998383,63.03326929998002,63.03326929998002,63.03326929998002,63.03326929998002,63.31940149998991,None,63.319679299980635,63.333452699997,63.333452699997,63.333452699997,63.333452699997,63.63323439998203,63.63323439998203,63.63323439998203,63.63323439998203,63.61935999998241,None,63.333452699997,63.333452699997,63.333452699997,63.333452699997,,,,,,,,,,,,,,,,,,,,,,,,,,,,,996964,001,2025-03-24_13h31.12.888,Estimulo_ICE,2024.2.4,61.84930664363458,2025-03-24 13h32.23.590689 -0300,
Estimulo_5,33,33,0,1.09999999999999,-1.09999999999998,1.09999999999999,-1.09999999999998,2.2,-2.2,-2.2,2.2,,,None,None,,,,,,,0,2,2,4,,,,,,,,,,,,,,,,,0,33,33,33,,,,,,,,,,,,,,,,,,,,,,,,,,,,,63.63323439998203,,,,,,,,,,,,,,,,,,,,,,,,,,,,,,,,63.61975369998254,63.63323439998203,63.63323439998203,63.63323439998203,63.63323439998203,63.91926969998167,None,63.91954859998077,63.933524399995804,63.933524399995804,63.933524399995804,63.933524399995804,64.31603079999331,64.31603079999331,64.31603079999331,64.31603079999331,64.21963359997608,None,63.933524399995804,63.933524399995804,63.933524399995804,63.933524399995804,,,,,,,,,,,,,,,,,,,,,,,,,,,,,996964,001,2025-03-24_13h31.12.888,Estimulo_ICE,2024.2.4,61.84930664363458,2025-03-24 13h32.23.590689 -0300,
Estimulo_5,2,2,0,,,,,,,,,,,,,,,,,,,0,2,2,4,,,,,,,,,,,,,,,,,,,,,,,,,,,,,,,,,,,,,,,,,,,,,,,,,,,,,,,,,,,,,,,,,,,,,,,,,,,64.31229279999388,64.31603079999331,,65.73565999997663,,,,,,,,,,,,,,,,,,,,,,,,,,,,,,,,,,,,,,,,,,,,,,,,,,,,,996964,001,2025-03-24_13h31.12.888,Estimulo_ICE,2024.2.4,61.84930664363458,2025-03-24 13h32.23.590689 -0300,
Estimulo_2,0,0,0,1.1,-1.1,1.1,-1.1,2.2,-2.2,-2.2,2.2,,,,,None,None,,,,,0,3,3,1,,,,,0,0,0,0,,,,,,,,,,,,,,,,,,,,,,,,,,,,,,,,,,,,,,,,,66.95028619997902,,65.73577549998299,65.73617489999742,,,,,,,,,,,,,,,,,,,,,,,,,,,,,,,,,,,,,,,,,,,,,,,,,,,65.78202089999104,66.95028619997902,66.95028619997902,66.95028619997902,66.95028619997902,66.95028619997902,66.95566279999912,None,66.95621629999368,66.95632089997525,None,,,,,,,,,,,,,,,,,,996964,001,2025-03-24_13h31.12.888,Estimulo_ICE,2024.2.4,61.84930664363458,2025-03-24 13h32.23.590689 -0300,
Estimulo_2,1,1,0,1.2,-1.2,1.2,-1.2,2.2,-2.2,-2.2,2.2,,,,,None,None,,,,,0,3,3,1,,,,,0,1,1,1,,,,,,,,,,,,,,,,,,,,,,,,,,,,,,,,,,,,,,,,,66.96794989999034,,,,,,,,,,,,,,,,,,,,,,,,,,,,,,,,,,,,,,,,,,,,,,,,,,,,,,66.95710169998347,,,,,,66.95720479998272,None,66.95765719999326,66.9577447999909,None,,,,,,,,,,,,,,,,,,996964,001,2025-03-24_13h31.12.888,Estimulo_ICE,2024.2.4,61.84930664363458,2025-03-24 13h32.23.590689 -0300,
Estimulo_2,2,2,0,1.3,-1.3,1.3,-1.3,2.2,-2.2,-2.2,2.2,,,,,None,None,,,,,0,3,3,1,,,,,0,2,2,2,,,,,,,,,,,,,,,,,,,,,,,,,,,,,,,,,,,,,,,,,66.96794989999034,,,,,,,,,,,,,,,,,,,,,,,,,,,,,,,,,,,,,,,,,,,,,,,,,,,,,,66.95846239998355,66.96794989999034,66.96794989999034,66.96794989999034,66.96794989999034,66.96794989999034,67.25247349997517,None,67.25273789998027,67.5523480999982,None,67.26663579998421,67.26663579998421,67.26663579998421,67.26663579998421,,,,,,,,,,,,,,996964,001,2025-03-24_13h31.12.888,Estimulo_ICE,2024.2.4,61.84930664363458,2025-03-24 13h32.23.590689 -0300,
Estimulo_2,3,3,0,1.4,-1.4,1.4,-1.4,2.2,-2.2,-2.2,2.2,,,,,None,None,,,,,0,3,3,1,,,,,0,3,3,3,,,,,,,,,,,,,,,,,,,,,,,,,,,,,,,,,,,,,,,,,67.56661619999795,,,,,,,,,,,,,,,,,,,,,,,,,,,,,,,,,,,,,,,,,,,,,,,,,,,,,,67.55272579999291,67.56661619999795,67.56661619999795,67.56661619999795,67.56661619999795,67.56661619999795,67.85238619998563,None,67.85264739999548,68.13955899997381,None,67.86691599999904,67.86691599999904,67.86691599999904,67.86691599999904,,,,,,,,,,,,,,996964,001,2025-03-24_13h31.12.888,Estimulo_ICE,2024.2.4,61.84930664363458,2025-03-24 13h32.23.590689 -0300,
Estimulo_2,4,4,0,1.5,-1.5,1.5,-1.5,2.2,-2.2,-2.2,2.2,,,,,None,None,,,,,0,3,3,1,,,,,0,4,4,4,,,,,,,,,,,,,,,,,,,,,,,,,,,,,,,,,,,,,,,,,68.15276189998258,,,,,,,,,,,,,,,,,,,,,,,,,,,,,,,,,,,,,,,,,,,,,,,,,,,,,,68.13998419998097,68.15276189998258,68.15276189998258,68.15276189998258,68.15276189998258,68.15276189998258,68.45231319998857,None,68.4525658999919,68.75237189998734,None,68.46698919998016,68.46698919998016,68.46698919998016,68.46698919998016,,,,,,,,,,,,,,996964,001,2025-03-24_13h31.12.888,Estimulo_ICE,2024.2.4,61.84930664363458,2025-03-24 13h32.23.590689 -0300,
Estimulo_2,5,5,0,1.6,-1.6,1.6,-1.6,2.2,-2.2,-2.2,2.2,,,,,None,None,,,,,0,3,3,1,,,,,0,5,5,5,,,,,,,,,,,,,,,,,,,,,,,,,,,,,,,,,,,,,,,,,68.7667356999882,,,,,,,,,,,,,,,,,,,,,,,,,,,,,,,,,,,,,,,,,,,,,,,,,,,,,,68.7527517999988,68.7667356999882,68.7667356999882,68.7667356999882,68.7667356999882,68.7667356999882,69.0523296999745,None,69.0525925999973,69.35241379999206,None,69.06670569998096,69.06670569998096,69.06670569998096,69.06670569998096,,,,,,,,,,,,,,996964,001,2025-03-24_13h31.12.888,Estimulo_ICE,2024.2.4,61.84930664363458,2025-03-24 13h32.23.590689 -0300,
Estimulo_2,6,6,0,1.7,-1.7,1.7,-1.7,2.2,-2.2,-2.2,2.2,,,,,None,None,,,,,0,3,3,1,,,,,0,6,6,6,,,,,,,,,,,,,,,,,,,,,,,,,,,,,,,,,,,,,,,,,69.36677889997372,,,,,,,,,,,,,,,,,,,,,,,,,,,,,,,,,,,,,,,,,,,,,,,,,,,,,,69.35279899998568,69.36677889997372,69.36677889997372,69.36677889997372,69.36677889997372,69.36677889997372,69.65243159999955,None,69.65269389998866,69.95228299999144,None,69.66678099997807,69.66678099997807,69.66678099997807,69.66678099997807,,,,,,,,,,,,,,996964,001,2025-03-24_13h31.12.888,Estimulo_ICE,2024.2.4,61.84930664363458,2025-03-24 13h32.23.590689 -0300,
Estimulo_2,7,7,0,1.8,-1.8,1.8,-1.8,2.2,-2.2,-2.2,2.2,,,,,None,None,,,,,0,3,3,1,,,,,0,7,7,7,,,,,,,,,,,,,,,,,,,,,,,,,,,,,,,,,,,,,,,,,69.96679809998022,,,,,,,,,,,,,,,,,,,,,,,,,,,,,,,,,,,,,,,,,,,,,,,,,,,,,,69.95266449998599,69.96679809998022,69.96679809998022,69.96679809998022,69.96679809998022,69.96679809998022,70.25252399998135,None,70.25278619999881,70.55242159997579,None,70.26672029998736,70.26672029998736,70.26672029998736,70.26672029998736,,,,,,,,,,,,,,996964,001,2025-03-24_13h31.12.888,Estimulo_ICE,2024.2.4,61.84930664363458,2025-03-24 13h32.23.590689 -0300,
Estimulo_2,8,8,0,1.9,-1.9,1.9,-1.9,2.2,-2.2,-2.2,2.2,,,,,None,None,,,,,0,3,3,1,,,,,0,8,8,8,,,,,,,,,,,,,,,,,,,,,,,,,,,,,,,,,,,,,,,,,70.56676429999061,,,,,,,,,,,,,,,,,,,,,,,,,,,,,,,,,,,,,,,,,,,,,,,,,,,,,,70.55279989997507,70.56676429999061,70.56676429999061,70.56676429999061,70.56676429999061,70.56676429999061,70.83846489997813,None,70.83894169999985,71.13627679998172,None,70.8508139999758,70.8508139999758,70.8508139999758,70.8508139999758,,,,,,,,,,,,,,996964,001,2025-03-24_13h31.12.888,Estimulo_ICE,2024.2.4,61.84930664363458,2025-03-24 13h32.23.590689 -0300,
Estimulo_2,9,9,0,2,-2,2,-2,2.2,-2.2,-2.2,2.2,,,,,None,None,,,,,0,3,3,1,,,,,0,9,9,9,,,,,,,,,,,,,,,,,,,,,,,,,,,,,,,,,,,,,,,,,71.15022119999048,,,,,,,,,,,,,,,,,,,,,,,,,,,,,,,,,,,,,,,,,,,,,,,,,,,,,,71.13675059998059,71.15022119999048,71.15022119999048,71.15022119999048,71.15022119999048,71.15022119999048,71.43704239997896,None,71.43730109999888,71.73611109997728,None,71.45004839997273,71.45004839997273,71.45004839997273,71.45004839997273,71.45004839997273,71.45004839997273,71.45004839997273,71.45004839997273,71.45004839997273,71.75000969998655,71.75000969998655,71.75000969998655,71.75000969998655,,,,,996964,001,2025-03-24_13h31.12.888,Estimulo_ICE,2024.2.4,61.84930664363458,2025-03-24 13h32.23.590689 -0300,
Estimulo_2,10,10,0,2.1,-2.1,2.1,-2.1,2.2,-2.2,-2.2,2.2,,,,,None,None,,,,,0,3,3,1,,,,,0,10,10,10,,,,,,,,,,,,,,,,,,,,,,,,,,,,,,,,,,,,,,,,,71.75000969998655,,,,,,,,,,,,,,,,,,,,,,,,,,,,,,,,,,,,,,,,,,,,,,,,,,,,,,71.73650349999662,71.75000969998655,71.75000969998655,71.75000969998655,71.75000969998655,71.75000969998655,72.03699199997936,None,72.03725999998278,72.33603729997412,None,72.049878299993,72.049878299993,72.049878299993,72.049878299993,72.049878299993,72.049878299993,72.049878299993,72.049878299993,72.049878299993,72.3501050999912,72.3501050999912,72.3501050999912,72.3501050999912,,,,,996964,001,2025-03-24_13h31.12.888,Estimulo_ICE,2024.2.4,61.84930664363458,2025-03-24 13h32.23.590689 -0300,
Estimulo_2,11,11,0,2.2,-2.2,2.2,-2.2,2.2,-2.2,-2.2,2.2,,,,,None,None,,,,,0,3,3,1,,,,,0,11,11,11,,,,,,,,,,,,,,,,,,,,,,,,,,,,,,,,,,,,,,,,,72.3501050999912,,,,,,,,,,,,,,,,,,,,,,,,,,,,,,,,,,,,,,,,,,,,,,,,,,,,,,72.33643279998796,72.3501050999912,72.3501050999912,72.3501050999912,72.3501050999912,72.3501050999912,72.63739129999885,None,72.6376700999972,72.93738859999576,None,72.64993159999722,72.64993159999722,72.64993159999722,72.64993159999722,72.64993159999722,72.64993159999722,72.64993159999722,72.64993159999722,72.64993159999722,,,,,,,,,996964,001,2025-03-24_13h31.12.888,Estimulo_ICE,2024.2.4,61.84930664363458,2025-03-24 13h32.23.590689 -0300,
Estimulo_2,12,12,0,2.3,-2.3,2.3,-2.3,2.2,-2.2,-2.2,2.2,,,,,None,None,,,,,0,3,3,1,,,,,0,12,12,12,,,,,,,,,,,,,,,,,,,,,,,,,,,,,,,,,,,,,,,,,72.95057069999166,,,,,,,,,,,,,,,,,,,,,,,,,,,,,,,,,,,,,,,,,,,,,,,,,,,,,,72.93798749998678,72.95057069999166,72.95057069999166,72.95057069999166,72.95057069999166,72.95057069999166,73.23716729998705,None,73.23742839999613,73.53603309998289,None,73.25009719998343,73.25009719998343,73.25009719998343,73.25009719998343,73.25009719998343,73.25009719998343,73.25009719998343,73.25009719998343,73.25009719998343,73.55000579997431,73.55000579997431,73.55000579997431,73.55000579997431,,,,,996964,001,2025-03-24_13h31.12.888,Estimulo_ICE,2024.2.4,61.84930664363458,2025-03-24 13h32.23.590689 -0300,
Estimulo_2,13,13,0,2.4,-2.4,2.4,-2.4,2.2,-2.2,-2.2,2.2,,,,,None,None,,,,,0,3,3,1,,,,,0,13,13,13,,,,,,,,,,,,,,,,,,,,,,,,,,,,,,,,,,,,,,,,,73.55000579997431,,,,,,,,,,,,,,,,,,,,,,,,,,,,,,,,,,,,,,,,,,,,,,,,,,,,,,73.5364257999754,73.55000579997431,73.55000579997431,73.55000579997431,73.55000579997431,73.55000579997431,73.83699729997898,None,73.83726029997342,74.13589700000011,None,73.85016569998697,73.85016569998697,73.85016569998697,73.85016569998697,73.85016569998697,73.85016569998697,73.85016569998697,73.85016569998697,73.85016569998697,74.14995029999409,74.14995029999409,74.14995029999409,74.14995029999409,,,,,996964,001,2025-03-24_13h31.12.888,Estimulo_ICE,2024.2.4,61.84930664363458,2025-03-24 13h32.23.590689 -0300,
Estimulo_2,14,14,0,2.5,-2.5,2.5,-2.5,2.2,-2.2,-2.2,2.2,,,,,None,None,,,,,0,3,3,1,,,,,0,14,14,14,,,,,,,,,,,,,,,,,,,,,,,,,,,,,,,,,,,,,,,,,74.14995029999409,,,,,,,,,,,,,,,,,,,,,,,,,,,,,,,,,,,,,,,,,,,,,,,,,,,,,,74.1362928999879,74.14995029999409,74.14995029999409,74.14995029999409,74.14995029999409,74.14995029999409,74.4369941999903,None,74.43724449997535,74.73585579998326,None,74.45011129998602,74.45011129998602,74.45011129998602,74.45011129998602,74.45011129998602,74.45011129998602,74.45011129998602,74.45011129998602,74.45011129998602,74.74983109999448,74.74983109999448,74.74983109999448,74.74983109999448,,,,,996964,001,2025-03-24_13h31.12.888,Estimulo_ICE,2024.2.4,61.84930664363458,2025-03-24 13h32.23.590689 -0300,
Estimulo_2,15,15,0,2.6,-2.6,2.6,-2.6,2.2,-2.2,-2.2,2.2,,,,,None,None,,,,,0,3,3,1,,,,,0,15,15,15,,,,,,,,,,,,,,,,,,,,,,,,,,,,,,,,,,,,,,,,,74.74983109999448,,,,,,,,,,,,,,,,,,,,,,,,,,,,,,,,,,,,,,,,,,,,,,,,,,,,,,74.73625209997408,74.74983109999448,74.74983109999448,74.74983109999448,74.74983109999448,74.74983109999448,75.03705369998352,None,75.0373028999893,75.33595789998071,None,75.05011249997187,75.05011249997187,75.05011249997187,75.05011249997187,75.05011249997187,75.05011249997187,75.05011249997187,75.05011249997187,75.05011249997187,75.35012709998409,75.35012709998409,75.35012709998409,75.35012709998409,,,,,996964,001,2025-03-24_13h31.12.888,Estimulo_ICE,2024.2.4,61.84930664363458,2025-03-24 13h32.23.590689 -0300,
Estimulo_2,16,16,0,2.7,-2.7,2.7,-2.7,2.2,-2.2,-2.2,2.2,,,,,['up'],None,[0.19714510001358576],[None],,,0,3,3,1,,,,,0,16,16,16,,,,,,,,,,,,,,,,,,,,,,,,,,,,,,,,,,,,,,,,,75.35012709998409,,,,,,,,,,,,,,,,,,,,,,,,,,,,,,,,,,,,,,,,,,,,,,,,,,,,,,75.33635109997704,75.35012709998409,75.35012709998409,75.35012709998409,75.35012709998409,75.35012709998409,75.63655539997853,['up'],75.63681379999616,75.93595749998349,None,75.64988339997944,75.64988339997944,75.64988339997944,75.64988339997944,75.64988339997944,75.64988339997944,75.64988339997944,75.64988339997944,75.64988339997944,75.95009129997925,75.95009129997925,75.95009129997925,75.95009129997925,[0.19714510001358576],[None],,,996964,001,2025-03-24_13h31.12.888,Estimulo_ICE,2024.2.4,61.84930664363458,2025-03-24 13h32.23.590689 -0300,
Estimulo_2,17,17,0,2.8,-2.8,2.8,-2.8,2.2,-2.2,-2.2,2.2,,,,,None,['up'],,,[0.28432090001297183],[None],0,3,3,1,,,,,0,17,17,17,,,,,,,,,,,,,,,,,,,,,,,,,,,,,,,,,,,,,,,,,75.95009129997925,,,,,,,,,,,,,,,,,,,,,,,,,,,,,,,,,,,,,,,,,,,,,,,,,,,,,,75.93635789997643,75.95009129997925,75.95009129997925,75.95009129997925,75.95009129997925,75.95009129997925,76.2371699999785,None,76.2374108999793,76.53583389997948,['up'],76.24986669997452,76.24986669997452,76.24986669997452,76.24986669997452,76.24986669997452,76.24986669997452,76.24986669997452,76.24986669997452,76.24986669997452,76.5500857999723,76.5500857999723,76.5500857999723,76.5500857999723,,,[0.28432090001297183],[None],996964,001,2025-03-24_13h31.12.888,Estimulo_ICE,2024.2.4,61.84930664363458,2025-03-24 13h32.23.590689 -0300,
Estimulo_2,18,18,0,2.9,-2.9,2.9,-2.9,2.2,-2.2,-2.2,2.2,,,,,None,None,,,,,0,3,3,1,,,,,0,18,18,18,,,,,,,,,,,,,,,,,,,,,,,,,,,,,,,,,,,,,,,,,76.5500857999723,,,,,,,,,,,,,,,,,,,,,,,,,,,,,,,,,,,,,,,,,,,,,,,,,,,,,,76.53625899998588,76.5500857999723,76.5500857999723,76.5500857999723,76.5500857999723,76.5500857999723,76.8368331999809,None,76.83706779999193,77.13589549998869,None,76.85002469999017,76.85002469999017,76.85002469999017,76.85002469999017,76.85002469999017,76.85002469999017,76.85002469999017,76.85002469999017,76.85002469999017,77.15010289999191,77.15010289999191,77.15010289999191,77.15010289999191,,,,,996964,001,2025-03-24_13h31.12.888,Estimulo_ICE,2024.2.4,61.84930664363458,2025-03-24 13h32.23.590689 -0300,
Estimulo_2,19,19,0,3,-3,3,-3,2.2,-2.2,-2.2,2.2,,,,,['up'],None,[0.06104229998891242],[0.1351771000190638],,,0,3,3,1,,,,,0,19,19,19,,,,,,,,,,,,,,,,,,,,,,,,,,,,,,,,,,,,,,,,,77.15010289999191,,,,,,,,,,,,,,,,,,,,,,,,,,,,,,,,,,,,,,,,,,,,,,,,,,,,,,77.13626239998848,77.15010289999191,77.15010289999191,77.15010289999191,77.15010289999191,77.15010289999191,77.43740459997207,['up'],77.4376898999908,77.73598719999427,None,77.45007369999075,77.45007369999075,77.45007369999075,77.45007369999075,77.45007369999075,77.45007369999075,77.45007369999075,77.45007369999075,77.45007369999075,77.7499321999785,77.7499321999785,77.7499321999785,77.7499321999785,[0.06104229998891242],[0.1351771000190638],,,996964,001,2025-03-24_13h31.12.888,Estimulo_ICE,2024.2.4,61.84930664363458,2025-03-24 13h32.23.590689 -0300,
Estimulo_2,20,20,0,3.1,-3.1,3.1,-3.1,2.2,-2.2,-2.2,2.2,,,,,['up'],None,[0.1406913000100758],[None],,,0,3,3,1,,,,,0,20,20,20,,,,,,,,,,,,,,,,,,,,,,,,,,,,,,,,,,,,,,,,,77.7499321999785,,,,,,,,,,,,,,,,,,,,,,,,,,,,,,,,,,,,,,,,,,,,,,,,,,,,,,77.73637369999778,77.7499321999785,77.7499321999785,77.7499321999785,77.7499321999785,77.7499321999785,78.03722929998185,['up'],78.03750589999254,78.33606699999655,None,78.04984239998157,78.04984239998157,78.04984239998157,78.04984239998157,78.04984239998157,78.04984239998157,78.04984239998157,78.04984239998157,78.04984239998157,78.34992649999913,78.34992649999913,78.34992649999913,78.34992649999913,[0.1406913000100758],[None],,,996964,001,2025-03-24_13h31.12.888,Estimulo_ICE,2024.2.4,61.84930664363458,2025-03-24 13h32.23.590689 -0300,
Estimulo_2,21,21,0,3.2,-3.2,3.2,-3.2,2.2,-2.2,-2.2,2.2,,,,,['right'],None,[0.020513700001174584],[0.11189150001155213],,,0,3,3,1,,,,,0,21,21,21,,,,,,,,,,,,,,,,,,,,,,,,,,,,,,,,,,,,,,,,,78.34992649999913,,,,,,,,,,,,,,,,,,,,,,,,,,,,,,,,,,,,,,,,,,,,,,,,,,,,,,78.33646429999499,78.34992649999913,78.34992649999913,78.34992649999913,78.34992649999913,78.34992649999913,78.63739530000021,['right'],78.63768019998679,78.93580989999464,None,78.65001809998648,78.65001809998648,78.65001809998648,78.65001809998648,78.65001809998648,78.65001809998648,78.65001809998648,78.65001809998648,78.65001809998648,78.95001349999802,78.95001349999802,78.95001349999802,78.95001349999802,[0.020513700001174584],[0.11189150001155213],,,996964,001,2025-03-24_13h31.12.888,Estimulo_ICE,2024.2.4,61.84930664363458,2025-03-24 13h32.23.590689 -0300,
Estimulo_2,22,22,0,3.3,-3.3,3.3,-3.3,2.2,-2.2,-2.2,2.2,,,,,['left'],None,[0.22893589999875985],[None],,,0,3,3,1,,,,,0,22,22,22,,,,,,,,,,,,,,,,,,,,,,,,,,,,,,,,,,,,,,,,,78.95001349999802,,,,,,,,,,,,,,,,,,,,,,,,,,,,,,,,,,,,,,,,,,,,,,,,,,,,,,78.93620669998927,78.95001349999802,78.95001349999802,78.95001349999802,78.95001349999802,78.95001349999802,79.2373676999996,['left'],79.23765679998905,79.53583679997246,None,79.24999499999103,79.24999499999103,79.24999499999103,79.24999499999103,79.24999499999103,79.24999499999103,79.24999499999103,79.24999499999103,79.24999499999103,79.54979489999823,79.54979489999823,79.54979489999823,79.54979489999823,[0.22893589999875985],[None],,,996964,001,2025-03-24_13h31.12.888,Estimulo_ICE,2024.2.4,61.84930664363458,2025-03-24 13h32.23.590689 -0300,
Estimulo_2,23,23,0,3.4,-3.4,3.4,-3.4,2.2,-2.2,-2.2,2.2,,,,,['right'],['up'],[0.1085814000107348],[0.1206872999900952],[0.09600720001617447],[0.13681080000242218],0,3,3,1,,,,,0,23,23,23,,,,,,,,,,,,,,,,,,,,,,,,,,,,,,,,,,,,,,,,,79.54979489999823,,,,,,,,,,,,,,,,,,,,,,,,,,,,,,,,,,,,,,,,,,,,,,,,,,,,,,79.53623879997758,79.54979489999823,79.54979489999823,79.54979489999823,79.54979489999823,79.54979489999823,79.83726799997385,['right'],79.83753859999706,80.13600689999294,['up'],79.8500240999856,79.8500240999856,79.8500240999856,79.8500240999856,79.8500240999856,79.8500240999856,79.8500240999856,79.8500240999856,79.8500240999856,80.14999859998352,80.14999859998352,80.14999859998352,80.14999859998352,[0.1085814000107348],[0.1206872999900952],[0.09600720001617447],[0.13681080000242218],996964,001,2025-03-24_13h31.12.888,Estimulo_ICE,2024.2.4,61.84930664363458,2025-03-24 13h32.23.590689 -0300,
Estimulo_2,24,24,0,3.5,-3.5,3.5,-3.5,2.2,-2.2,-2.2,2.2,,,,,['up'],None,[0.21261089999461547],[None],,,0,3,3,1,,,,,0,24,24,24,,,,,,,,,,,,,,,,,,,,,,,,,,,,,,,,,,,,,,,,,80.14999859998352,,,,,,,,,,,,,,,,,,,,,,,,,,,,,,,,,,,,,,,,,,,,,,,,,,,,,,80.13642269998672,80.14999859998352,80.14999859998352,80.14999859998352,80.14999859998352,80.14999859998352,80.43709969997872,['up'],80.43738619997748,80.73585279998952,None,80.45000259997323,80.45000259997323,80.45000259997323,80.45000259997323,80.45000259997323,80.45000259997323,80.45000259997323,80.45000259997323,80.45000259997323,80.74996589997318,80.74996589997318,80.74996589997318,80.74996589997318,[0.21261089999461547],[None],,,996964,001,2025-03-24_13h31.12.888,Estimulo_ICE,2024.2.4,61.84930664363458,2025-03-24 13h32.23.590689 -0300,
Estimulo_2,25,25,0,3.6,-3.6,3.6,-3.6,2.2,-2.2,-2.2,2.2,,,,,['up'],None,[0.2684871999954339],[None],,,0,3,3,1,,,,,0,25,25,25,,,,,,,,,,,,,,,,,,,,,,,,,,,,,,,,,,,,,,,,,80.74996589997318,,,,,,,,,,,,,,,,,,,,,,,,,,,,,,,,,,,,,,,,,,,,,,,,,,,,,,80.73624829997425,80.74996589997318,80.74996589997318,80.74996589997318,80.74996589997318,80.74996589997318,81.03755389997968,['up'],81.03784469998209,81.33600419998402,None,81.04988679999951,81.04988679999951,81.04988679999951,81.04988679999951,81.04988679999951,81.04988679999951,81.04988679999951,81.04988679999951,81.04988679999951,81.34986709998338,81.34986709998338,81.34986709998338,81.34986709998338,[0.2684871999954339],[None],,,996964,001,2025-03-24_13h31.12.888,Estimulo_ICE,2024.2.4,61.84930664363458,2025-03-24 13h32.23.590689 -0300,
,26,26,0,3.7,-3.7,3.7,-3.7,2.2,-2.2,-2.2,2.2,,,,,,,,,,,,,,,,,,,0,26,26,26,,,,,,,,,,,,,,,,,,,,,,,,,,,,,,,,,,,,,,,,,81.34986709998338,,,,,,,,,,,,,,,,,,,,,,,,,,,,,,,,,,,,,,,,,,,,,,,,,,,,,,81.33640119998017,81.34986709998338,81.34986709998338,81.34986709998338,81.34986709998338,81.34986709998338,,,,,,,,,,,,,,,,,,,,,,,,,,,,,,
