LoopName,thisN,thisTrialN,thisRepN,px1,px2,px3,px4,py1,py2,py3,py4,key_resp_2.keys,key_resp_3.keys,key_resp_3.rt,key_resp_3.duration,key_resp_2.rt,key_resp_2.duration,key_resp_4.keys,key_resp_5.keys,key_resp_4.rt,key_resp_4.duration,MainLoop.thisRepN,MainLoop.thisTrialN,MainLoop.thisN,MainLoop.thisIndex,loop_1.thisRepN,loop_1.thisTrialN,loop_1.thisN,loop_1.thisIndex,loop_2.thisRepN,loop_2.thisTrialN,loop_2.thisN,loop_2.thisIndex,loop_3.thisRepN,loop_3.thisTrialN,loop_3.thisN,loop_3.thisIndex,loop_4.thisRepN,loop_4.thisTrialN,loop_4.thisN,loop_4.thisIndex,loop_5.thisRepN,loop_5.thisTrialN,loop_5.thisN,loop_5.thisIndex,loop_6.thisRepN,loop_6.thisTrialN,loop_6.thisN,loop_6.thisIndex,loop_7.thisRepN,loop_7.thisTrialN,loop_7.thisN,loop_7.thisIndex,loop_8.thisRepN,loop_8.thisTrialN,loop_8.thisN,loop_8.thisIndex,loop_9.thisRepN,loop_9.thisTrialN,loop_9.thisN,loop_9.thisIndex,loop_10.thisRepN,loop_10.thisTrialN,loop_10.thisN,loop_10.thisIndex,loop_11.thisRepN,loop_11.thisTrialN,loop_11.thisN,loop_11.thisIndex,loop_12.thisRepN,loop_12.thisTrialN,loop_12.thisN,loop_12.thisIndex,thisRow.t,notes,codigo.started,codigo.stopped,trial.started,image.started,image_2.started,polygon.started,key_resp_2.started,trial.stopped,loop_2.key_resp_2.keys,trial_2.started,image_3.started,image_4.started,polygon_2.started,key_resp_3.started,trial_2.stopped,loop_2.key_resp_3.keys,loop_2.key_resp_3.rt,loop_2.key_resp_3.duration,loop_2.key_resp_2.rt,loop_2.key_resp_2.duration,_intertrial_interval_.started,polygon_5.started,_intertrial_interval_.stopped,trial_3.started,image_5.started,image_6.started,polygon_3.started,key_resp_4.started,trial_3.stopped,loop_5.key_resp_4.keys,trial_4.started,image_7.started,image_8.started,polygon_4.started,key_resp_5.started,image_7.stopped,image_8.stopped,polygon_4.stopped,key_resp_5.stopped,trial_4.stopped,loop_5.key_resp_5.keys,image_5.stopped,image_6.stopped,polygon_3.stopped,key_resp_4.stopped,loop_5.key_resp_4.rt,loop_5.key_resp_4.duration,loop_3.key_resp_2.keys,loop_3.key_resp_3.keys,loop_3.key_resp_2.rt,loop_3.key_resp_2.duration,image_3.stopped,image_4.stopped,polygon_2.stopped,key_resp_3.stopped,loop_8.key_resp_4.keys,loop_8.key_resp_5.keys,participant,session,date,expName,psychopyVersion,frameRate,expStart,
Estimulo_2,0,0,0,1.1,-1.1,1.1,-1.1,2.2,-2.2,-2.2,2.2,None,None,,,,,,,,,0,0,0,1,,,,,0,0,0,0,,,,,,,,,,,,,,,,,,,,,,,,,,,,,,,,,,,,,,,,,0.15062649999998712,,0.03944560000002184,0.03979559999999083,0.10720760000003793,0.15062649999998712,0.15062649999998712,0.15062649999998712,0.15062649999998712,0.3514451000000349,None,0.3519119000000046,0.36336860000000115,0.36336860000000115,0.36336860000000115,0.36336860000000115,0.6479545999999914,None,,,,,,,,,,,,,,,,,,,,,,,,,,,,,,,,,,,,,,,,,,pitolomeu,001,2025-03-21_14h24.58.586,Estimulo_ICE,2024.2.4,60.098826510315476,2025-03-21 14h25.10.268475 -0300,
Estimulo_2,1,1,0,1.2,-1.2,1.2,-1.2,2.2,-2.2,-2.2,2.2,None,None,,,,,,,,,0,0,0,1,,,,,0,1,1,1,,,,,,,,,,,,,,,,,,,,,,,,,,,,,,,,,,,,,,,,,0.6624075000000289,,,,0.648311700000022,0.6624075000000289,0.6624075000000289,0.6624075000000289,0.6624075000000289,0.9481738000000064,None,0.9484659999999963,0.9623781000000236,0.9623781000000236,0.9623781000000236,0.9623781000000236,1.24792020000001,None,,,,,,,,,,,,,,,,,,,,,,,,,,,,,,,,,,,,,,,,,,pitolomeu,001,2025-03-21_14h24.58.586,Estimulo_ICE,2024.2.4,60.098826510315476,2025-03-21 14h25.10.268475 -0300,
Estimulo_2,2,2,0,1.3,-1.3,1.3,-1.3,2.2,-2.2,-2.2,2.2,None,None,,,,,,,,,0,0,0,1,,,,,0,2,2,2,,,,,,,,,,,,,,,,,,,,,,,,,,,,,,,,,,,,,,,,,1.2624981000000162,,,,1.248276599999997,1.2624981000000162,1.2624981000000162,1.2624981000000162,1.2624981000000162,1.547941000000037,None,1.5481982000000016,1.5624026000000413,1.5624026000000413,1.5624026000000413,1.5624026000000413,1.8478787999999895,None,,,,,,,,,,,,,,,,,,,,,,,,,,,,,,,,,,,,,,,,,,pitolomeu,001,2025-03-21_14h24.58.586,Estimulo_ICE,2024.2.4,60.098826510315476,2025-03-21 14h25.10.268475 -0300,
Estimulo_2,3,3,0,1.4,-1.4,1.4,-1.4,2.2,-2.2,-2.2,2.2,None,None,,,,,,,,,0,0,0,1,,,,,0,3,3,3,,,,,,,,,,,,,,,,,,,,,,,,,,,,,,,,,,,,,,,,,1.8623355999999944,,,,1.8482283000000166,1.8623355999999944,1.8623355999999944,1.8623355999999944,1.8623355999999944,2.1479831999999988,None,2.1482341000000247,2.162335600000006,2.162335600000006,2.162335600000006,2.162335600000006,2.4477507999999943,None,,,,,,,,,,,,,,,,,,,,,,,,,,,,,,,,,,,,,,,,,,pitolomeu,001,2025-03-21_14h24.58.586,Estimulo_ICE,2024.2.4,60.098826510315476,2025-03-21 14h25.10.268475 -0300,
Estimulo_2,4,4,0,1.5,-1.5,1.5,-1.5,2.2,-2.2,-2.2,2.2,None,['right'],[0.23727629999996225],[None],,,,,,,0,0,0,1,,,,,0,4,4,4,,,,,,,,,,,,,,,,,,,,,,,,,,,,,,,,,,,,,,,,,2.4622854000000416,,,,2.448075899999992,2.4622854000000416,2.4622854000000416,2.4622854000000416,2.4622854000000416,2.7477944999999977,None,2.7480421000000206,2.762438300000042,2.762438300000042,2.762438300000042,2.762438300000042,3.080566200000021,['right'],[0.23727629999996225],[None],,,,,,,,,,,,,,,,,,,,,,,,,,,,,,,,,,,,,,,,pitolomeu,001,2025-03-21_14h24.58.586,Estimulo_ICE,2024.2.4,60.098826510315476,2025-03-21 14h25.10.268475 -0300,
Estimulo_2,5,5,0,1.6,-1.6,1.6,-1.6,2.2,-2.2,-2.2,2.2,None,None,,,,,,,,,0,0,0,1,,,,,0,5,5,5,,,,,,,,,,,,,,,,,,,,,,,,,,,,,,,,,,,,,,,,,3.095765599999993,,,,3.0809611000000245,3.095765599999993,3.095765599999993,3.095765599999993,3.095765599999993,3.3480072000000405,None,3.348254499999996,3.362474700000007,3.362474700000007,3.362474700000007,3.362474700000007,3.647891100000038,None,,,,,,,,,,,,,,,,,,,,,,,,,,,,,,,,,,,,,,,,,,pitolomeu,001,2025-03-21_14h24.58.586,Estimulo_ICE,2024.2.4,60.098826510315476,2025-03-21 14h25.10.268475 -0300,
Estimulo_2,6,6,0,1.7,-1.7,1.7,-1.7,2.2,-2.2,-2.2,2.2,['right'],['up'],[0.23723849999998947],[None],[0.28532490000003463],[0.07227209999996376],,,,,0,0,0,1,,,,,0,6,6,6,,,,,,,,,,,,,,,,,,,,,,,,,,,,,,,,,,,,,,,,,3.6624664999999936,,,,3.6482450000000313,3.6624664999999936,3.6624664999999936,3.6624664999999936,3.6624664999999936,3.948001099999999,['right'],3.9482717999999863,3.962326800000028,3.962326800000028,3.962326800000028,3.962326800000028,4.24797140000004,['up'],[0.23723849999998947],[None],[0.28532490000003463],[0.07227209999996376],,,,,,,,,,,,,,,,,,,,,,,,,,,,,,,,,,,,,,pitolomeu,001,2025-03-21_14h24.58.586,Estimulo_ICE,2024.2.4,60.098826510315476,2025-03-21 14h25.10.268475 -0300,
Estimulo_2,7,7,0,1.8,-1.8,1.8,-1.8,2.2,-2.2,-2.2,2.2,None,None,,,,,,,,,0,0,0,1,,,,,0,7,7,7,,,,,,,,,,,,,,,,,,,,,,,,,,,,,,,,,,,,,,,,,4.2621982,,,,4.248347200000012,4.2621982,4.2621982,4.2621982,4.2621982,4.549469299999998,None,4.549859700000013,4.562813900000037,4.562813900000037,4.562813900000037,4.562813900000037,4.852736700000037,None,,,,,,,,,,,,,,,,,,,,,,,,,,,,,,,,,,,,,,,,,,pitolomeu,001,2025-03-21_14h24.58.586,Estimulo_ICE,2024.2.4,60.098826510315476,2025-03-21 14h25.10.268475 -0300,
Estimulo_2,8,8,0,1.9,-1.9,1.9,-1.9,2.2,-2.2,-2.2,2.2,None,None,,,,,,,,,0,0,0,1,,,,,0,8,8,8,,,,,,,,,,,,,,,,,,,,,,,,,,,,,,,,,,,,,,,,,4.863851699999998,,,,4.853612300000009,4.863851699999998,4.863851699999998,4.863851699999998,4.863851699999998,5.152888700000005,None,5.153497700000003,5.163840900000025,5.163840900000025,5.163840900000025,5.163840900000025,5.447919600000034,None,,,,,,,,,,,,,,,,,,,,,,,,,,,,,,,,,,,,,,,,,,pitolomeu,001,2025-03-21_14h24.58.586,Estimulo_ICE,2024.2.4,60.098826510315476,2025-03-21 14h25.10.268475 -0300,
Estimulo_2,9,9,0,2,-2,2,-2,2.2,-2.2,-2.2,2.2,None,None,,,,,,,,,0,0,0,1,,,,,0,9,9,9,,,,,,,,,,,,,,,,,,,,,,,,,,,,,,,,,,,,,,,,,5.462380600000017,,,,5.448287800000003,5.462380600000017,5.462380600000017,5.462380600000017,5.462380600000017,5.748171300000024,None,5.748429499999986,5.762443700000006,5.762443700000006,5.762443700000006,5.762443700000006,6.047930800000017,None,,,,,,,,,,,,,,,,,,,,,,,,,,,,,,,,,,,,,,,,,,pitolomeu,001,2025-03-21_14h24.58.586,Estimulo_ICE,2024.2.4,60.098826510315476,2025-03-21 14h25.10.268475 -0300,
Estimulo_2,10,10,0,2.1,-2.1,2.1,-2.1,2.2,-2.2,-2.2,2.2,None,None,,,,,,,,,0,0,0,1,,,,,0,10,10,10,,,,,,,,,,,,,,,,,,,,,,,,,,,,,,,,,,,,,,,,,6.062341800000013,,,,6.04829970000003,6.062341800000013,6.062341800000013,6.062341800000013,6.062341800000013,6.348015700000019,None,6.348274100000026,6.36246570000003,6.36246570000003,6.36246570000003,6.36246570000003,6.647986300000014,None,,,,,,,,,,,,,,,,,,,,,,,,,,,,,,,,,,,,,,,,,,pitolomeu,001,2025-03-21_14h24.58.586,Estimulo_ICE,2024.2.4,60.098826510315476,2025-03-21 14h25.10.268475 -0300,
Estimulo_2,11,11,0,2.2,-2.2,2.2,-2.2,2.2,-2.2,-2.2,2.2,None,None,,,,,,,,,0,0,0,1,,,,,0,11,11,11,,,,,,,,,,,,,,,,,,,,,,,,,,,,,,,,,,,,,,,,,6.662359900000013,,,,6.648356100000001,6.662359900000013,6.662359900000013,6.662359900000013,6.662359900000013,6.947897399999988,None,6.948148900000035,6.9622989000000075,6.9622989000000075,6.9622989000000075,6.9622989000000075,7.247872900000004,None,,,,,,,,,,,,,,,,,,,,,,,,,,,,,,,,,,,,,,,,,,pitolomeu,001,2025-03-21_14h24.58.586,Estimulo_ICE,2024.2.4,60.098826510315476,2025-03-21 14h25.10.268475 -0300,
Estimulo_2,12,12,0,2.3,-2.3,2.3,-2.3,2.2,-2.2,-2.2,2.2,None,None,,,,,,,,,0,0,0,1,,,,,0,12,12,12,,,,,,,,,,,,,,,,,,,,,,,,,,,,,,,,,,,,,,,,,7.2623173000000065,,,,7.248228900000015,7.2623173000000065,7.2623173000000065,7.2623173000000065,7.2623173000000065,7.547996899999987,None,7.548242399999992,7.562327900000014,7.562327900000014,7.562327900000014,7.562327900000014,7.847872800000005,None,,,,,,,,,,,,,,,,,,,,,,,,,,,,,,,,,,,,,,,,,,pitolomeu,001,2025-03-21_14h24.58.586,Estimulo_ICE,2024.2.4,60.098826510315476,2025-03-21 14h25.10.268475 -0300,
Estimulo_2,13,13,0,2.4,-2.4,2.4,-2.4,2.2,-2.2,-2.2,2.2,None,None,,,,,,,,,0,0,0,1,,,,,0,13,13,13,,,,,,,,,,,,,,,,,,,,,,,,,,,,,,,,,,,,,,,,,7.862330299999996,,,,7.848222899999996,7.862330299999996,7.862330299999996,7.862330299999996,7.862330299999996,8.148072300000024,None,8.148318500000016,8.162310400000024,8.162310400000024,8.162310400000024,8.162310400000024,8.44789860000003,None,,,,,,,,,,,,,,,,,,,,,,,,,,,,,,,,,,,,,,,,,,pitolomeu,001,2025-03-21_14h24.58.586,Estimulo_ICE,2024.2.4,60.098826510315476,2025-03-21 14h25.10.268475 -0300,
Estimulo_2,14,14,0,2.5,-2.5,2.5,-2.5,2.2,-2.2,-2.2,2.2,None,None,,,,,,,,,0,0,0,1,,,,,0,14,14,14,,,,,,,,,,,,,,,,,,,,,,,,,,,,,,,,,,,,,,,,,8.462172900000041,,,,8.448248200000023,8.462172900000041,8.462172900000041,8.462172900000041,8.462172900000041,8.747844900000018,None,8.7480908,8.762308700000006,8.762308700000006,8.762308700000006,8.762308700000006,9.0478612,None,,,,,,,,,,,,,,,,,,,,,,,,,,,,,,,,,,,,,,,,,,pitolomeu,001,2025-03-21_14h24.58.586,Estimulo_ICE,2024.2.4,60.098826510315476,2025-03-21 14h25.10.268475 -0300,
Estimulo_2,15,15,0,2.6,-2.6,2.6,-2.6,2.2,-2.2,-2.2,2.2,None,None,,,,,,,,,0,0,0,1,,,,,0,15,15,15,,,,,,,,,,,,,,,,,,,,,,,,,,,,,,,,,,,,,,,,,9.062312600000041,,,,9.04821370000002,9.062312600000041,9.062312600000041,9.062312600000041,9.062312600000041,9.347985400000027,None,9.348244300000033,9.362254800000017,9.362254800000017,9.362254800000017,9.362254800000017,9.656329200000016,None,,,,,,,,,,,,,,,,,,,,,,,,,,,,,,,,,,,,,,,,,,pitolomeu,001,2025-03-21_14h24.58.586,Estimulo_ICE,2024.2.4,60.098826510315476,2025-03-21 14h25.10.268475 -0300,
Estimulo_2,16,16,0,2.7,-2.7,2.7,-2.7,2.2,-2.2,-2.2,2.2,None,None,,,,,,,,,0,0,0,1,,,,,0,16,16,16,,,,,,,,,,,,,,,,,,,,,,,,,,,,,,,,,,,,,,,,,9.661753900000008,,,,9.656674800000019,9.661753900000008,9.661753900000008,9.661753900000008,9.661753900000008,9.949853700000006,None,9.950261100000034,9.962855700000034,9.962855700000034,9.962855700000034,9.962855700000034,10.24790360000003,None,,,,,,,,,,,,,,,,,,,,,,,,,,,,,,,,,,,,,,,,,,pitolomeu,001,2025-03-21_14h24.58.586,Estimulo_ICE,2024.2.4,60.098826510315476,2025-03-21 14h25.10.268475 -0300,
Estimulo_2,17,17,0,2.8,-2.8,2.8,-2.8,2.2,-2.2,-2.2,2.2,None,None,,,,,,,,,0,0,0,1,,,,,0,17,17,17,,,,,,,,,,,,,,,,,,,,,,,,,,,,,,,,,,,,,,,,,10.26222150000001,,,,10.248255900000004,10.26222150000001,10.26222150000001,10.26222150000001,10.26222150000001,10.547900400000003,None,10.54814250000004,10.562435100000016,10.562435100000016,10.562435100000016,10.562435100000016,10.851723800000002,None,,,,,,,,,,,,,,,,,,,,,,,,,,,,,,,,,,,,,,,,,,pitolomeu,001,2025-03-21_14h24.58.586,Estimulo_ICE,2024.2.4,60.098826510315476,2025-03-21 14h25.10.268475 -0300,
Estimulo_2,18,18,0,2.9,-2.9,2.9,-2.9,2.2,-2.2,-2.2,2.2,None,None,,,,,,,,,0,0,0,1,,,,,0,18,18,18,,,,,,,,,,,,,,,,,,,,,,,,,,,,,,,,,,,,,,,,,10.863394000000028,,,,10.852482699999996,10.863394000000028,10.863394000000028,10.863394000000028,10.863394000000028,11.151168000000041,None,11.151685600000008,11.163230800000008,11.163230800000008,11.163230800000008,11.163230800000008,11.451246200000014,None,,,,,,,,,,,,,,,,,,,,,,,,,,,,,,,,,,,,,,,,,,pitolomeu,001,2025-03-21_14h24.58.586,Estimulo_ICE,2024.2.4,60.098826510315476,2025-03-21 14h25.10.268475 -0300,
Estimulo_2,19,19,0,3,-3,3,-3,2.2,-2.2,-2.2,2.2,None,None,,,,,,,,,0,0,0,1,,,,,0,19,19,19,,,,,,,,,,,,,,,,,,,,,,,,,,,,,,,,,,,,,,,,,11.463065800000038,,,,11.451961700000027,11.463065800000038,11.463065800000038,11.463065800000038,11.463065800000038,11.747695000000022,None,11.747920800000031,11.762242700000002,11.762242700000002,11.762242700000002,11.762242700000002,12.04786039999999,None,,,,,,,,,,,,,,,,,,,,,,,,,,,,,,,,,,,,,,,,,,pitolomeu,001,2025-03-21_14h24.58.586,Estimulo_ICE,2024.2.4,60.098826510315476,2025-03-21 14h25.10.268475 -0300,
Estimulo_2,20,20,0,3.1,-3.1,3.1,-3.1,2.2,-2.2,-2.2,2.2,None,None,,,,,,,,,0,0,0,1,,,,,0,20,20,20,,,,,,,,,,,,,,,,,,,,,,,,,,,,,,,,,,,,,,,,,12.062357399999996,,,,12.04821609999999,12.062357399999996,12.062357399999996,12.062357399999996,12.062357399999996,12.350640100000021,None,12.351115400000026,12.363107899999989,12.363107899999989,12.363107899999989,12.363107899999989,12.648830900000007,None,,,,,,,,,,,,,,,,,,,,,,,,,,,,,,,,,,,,,,,,,,pitolomeu,001,2025-03-21_14h24.58.586,Estimulo_ICE,2024.2.4,60.098826510315476,2025-03-21 14h25.10.268475 -0300,
Estimulo_2,21,21,0,3.2,-3.2,3.2,-3.2,2.2,-2.2,-2.2,2.2,None,None,,,,,,,,,0,0,0,1,,,,,0,21,21,21,,,,,,,,,,,,,,,,,,,,,,,,,,,,,,,,,,,,,,,,,12.66557499999999,,,,12.649305400000003,12.66557499999999,12.66557499999999,12.66557499999999,12.66557499999999,12.949746199999993,None,12.950246200000038,12.96288370000002,12.96288370000002,12.96288370000002,12.96288370000002,13.249331900000016,None,,,,,,,,,,,,,,,,,,,,,,,,,,,,,,,,,,,,,,,,,,pitolomeu,001,2025-03-21_14h24.58.586,Estimulo_ICE,2024.2.4,60.098826510315476,2025-03-21 14h25.10.268475 -0300,
Estimulo_2,22,22,0,3.3,-3.3,3.3,-3.3,2.2,-2.2,-2.2,2.2,None,None,,,,,,,,,0,0,0,1,,,,,0,22,22,22,,,,,,,,,,,,,,,,,,,,,,,,,,,,,,,,,,,,,,,,,13.26241379999999,,,,13.249923300000034,13.26241379999999,13.26241379999999,13.26241379999999,13.26241379999999,13.548031900000012,None,13.54832909999999,13.562561500000015,13.562561500000015,13.562561500000015,13.562561500000015,13.851830699999994,None,,,,,,,,,,,,,,,,,,,,,,,,,,,,,,,,,,,,,,,,,,pitolomeu,001,2025-03-21_14h24.58.586,Estimulo_ICE,2024.2.4,60.098826510315476,2025-03-21 14h25.10.268475 -0300,
Estimulo_2,23,23,0,3.4,-3.4,3.4,-3.4,2.2,-2.2,-2.2,2.2,None,None,,,,,,,,,0,0,0,1,,,,,0,23,23,23,,,,,,,,,,,,,,,,,,,,,,,,,,,,,,,,,,,,,,,,,13.86357270000002,,,,13.852627900000016,13.86357270000002,13.86357270000002,13.86357270000002,13.86357270000002,14.151843000000042,None,14.152404100000012,14.163511300000039,14.163511300000039,14.163511300000039,14.163511300000039,14.447675300000014,None,,,,,,,,,,,,,,,,,,,,,,,,,,,,,,,,,,,,,,,,,,pitolomeu,001,2025-03-21_14h24.58.586,Estimulo_ICE,2024.2.4,60.098826510315476,2025-03-21 14h25.10.268475 -0300,
Estimulo_2,24,24,0,3.5,-3.5,3.5,-3.5,2.2,-2.2,-2.2,2.2,None,None,,,,,,,,,0,0,0,1,,,,,0,24,24,24,,,,,,,,,,,,,,,,,,,,,,,,,,,,,,,,,,,,,,,,,14.46225830000003,,,,14.448021200000028,14.46225830000003,14.46225830000003,14.46225830000003,14.46225830000003,14.747775600000011,None,14.74802010000002,14.762329000000022,14.762329000000022,14.762329000000022,14.762329000000022,15.047981200000038,None,,,,,,,,,,,,,,,,,,,,,,,,,,,,,,,,,,,,,,,,,,pitolomeu,001,2025-03-21_14h24.58.586,Estimulo_ICE,2024.2.4,60.098826510315476,2025-03-21 14h25.10.268475 -0300,
Estimulo_2,25,25,0,3.6,-3.6,3.6,-3.6,2.2,-2.2,-2.2,2.2,None,None,,,,,,,,,0,0,0,1,,,,,0,25,25,25,,,,,,,,,,,,,,,,,,,,,,,,,,,,,,,,,,,,,,,,,15.062214400000016,,,,15.048332399999993,15.062214400000016,15.062214400000016,15.062214400000016,15.062214400000016,15.348271000000011,None,15.348504900000023,15.362068399999998,15.362068399999998,15.362068399999998,15.362068399999998,15.647868700000004,None,,,,,,,,,,,,,,,,,,,,,,,,,,,,,,,,,,,,,,,,,,pitolomeu,001,2025-03-21_14h24.58.586,Estimulo_ICE,2024.2.4,60.098826510315476,2025-03-21 14h25.10.268475 -0300,
Estimulo_2,26,26,0,3.7,-3.7,3.7,-3.7,2.2,-2.2,-2.2,2.2,None,None,,,,,,,,,0,0,0,1,,,,,0,26,26,26,,,,,,,,,,,,,,,,,,,,,,,,,,,,,,,,,,,,,,,,,15.662375200000042,,,,15.648216200000036,15.662375200000042,15.662375200000042,15.662375200000042,15.662375200000042,15.947704600000009,None,15.947949100000017,15.962344900000005,15.962344900000005,15.962344900000005,15.962344900000005,16.247603800000036,None,,,,,,,,,,,,,,,,,,,,,,,,,,,,,,,,,,,,,,,,,,pitolomeu,001,2025-03-21_14h24.58.586,Estimulo_ICE,2024.2.4,60.098826510315476,2025-03-21 14h25.10.268475 -0300,
Estimulo_2,27,27,0,3.8,-3.8,3.8,-3.8,2.2,-2.2,-2.2,2.2,None,None,,,,,,,,,0,0,0,1,,,,,0,27,27,27,,,,,,,,,,,,,,,,,,,,,,,,,,,,,,,,,,,,,,,,,16.262498100000016,,,,16.2479601,16.262498100000016,16.262498100000016,16.262498100000016,16.262498100000016,16.547813200000007,None,16.548049100000014,16.5623114,16.5623114,16.5623114,16.5623114,16.84781380000004,None,,,,,,,,,,,,,,,,,,,,,,,,,,,,,,,,,,,,,,,,,,pitolomeu,001,2025-03-21_14h24.58.586,Estimulo_ICE,2024.2.4,60.098826510315476,2025-03-21 14h25.10.268475 -0300,
Estimulo_2,28,28,0,3.9,-3.9,3.9,-3.9,2.2,-2.2,-2.2,2.2,None,None,,,,,,,,,0,0,0,1,,,,,0,28,28,28,,,,,,,,,,,,,,,,,,,,,,,,,,,,,,,,,,,,,,,,,16.862106700000027,,,,16.848161400000038,16.862106700000027,16.862106700000027,16.862106700000027,16.862106700000027,17.147782199999995,None,17.148031900000035,17.162377200000037,17.162377200000037,17.162377200000037,17.162377200000037,17.447885600000006,None,,,,,,,,,,,,,,,,,,,,,,,,,,,,,,,,,,,,,,,,,,pitolomeu,001,2025-03-21_14h24.58.586,Estimulo_ICE,2024.2.4,60.098826510315476,2025-03-21 14h25.10.268475 -0300,
Estimulo_2,29,29,0,4,-4,4,-4,2.2,-2.2,-2.2,2.2,None,None,,,,,,,,,0,0,0,1,,,,,0,29,29,29,,,,,,,,,,,,,,,,,,,,,,,,,,,,,,,,,,,,,,,,,17.462359400000025,,,,17.448258100000032,17.462359400000025,17.462359400000025,17.462359400000025,17.462359400000025,17.74781360000003,None,17.74805660000004,17.76234790000001,17.76234790000001,17.76234790000001,17.76234790000001,18.04802140000004,None,,,,,,,,,,,,,,,,,,,,,,,,,,,,,,,,,,,,,,,,,,pitolomeu,001,2025-03-21_14h24.58.586,Estimulo_ICE,2024.2.4,60.098826510315476,2025-03-21 14h25.10.268475 -0300,
Estimulo_2,30,30,0,4.1,-4.1,4.1,-4.1,2.2,-2.2,-2.2,2.2,None,None,,,,,,,,,0,0,0,1,,,,,0,30,30,30,,,,,,,,,,,,,,,,,,,,,,,,,,,,,,,,,,,,,,,,,18.062277800000004,,,,18.04833560000003,18.062277800000004,18.062277800000004,18.062277800000004,18.062277800000004,18.347675100000004,None,18.347919999999988,18.36238000000003,18.36238000000003,18.36238000000003,18.36238000000003,18.647837600000003,None,,,,,,,,,,,,,,,,,,,,,,,,,,,,,,,,,,,,,,,,,,pitolomeu,001,2025-03-21_14h24.58.586,Estimulo_ICE,2024.2.4,60.098826510315476,2025-03-21 14h25.10.268475 -0300,
Estimulo_2,31,31,0,4.2,-4.2,4.2,-4.2,2.2,-2.2,-2.2,2.2,None,None,,,,,,,,,0,0,0,1,,,,,0,31,31,31,,,,,,,,,,,,,,,,,,,,,,,,,,,,,,,,,,,,,,,,,18.662228200000015,,,,18.648211000000003,18.662228200000015,18.662228200000015,18.662228200000015,18.662228200000015,18.947834400000033,None,18.948078100000032,18.962347099999988,18.962347099999988,18.962347099999988,18.962347099999988,19.247814900000037,None,,,,,,,,,,,,,,,,,,,,,,,,,,,,,,,,,,,,,,,,,,pitolomeu,001,2025-03-21_14h24.58.586,Estimulo_ICE,2024.2.4,60.098826510315476,2025-03-21 14h25.10.268475 -0300,
Estimulo_2,32,32,0,4.3,-4.3,4.3,-4.3,2.2,-2.2,-2.2,2.2,None,None,,,,,,,,,0,0,0,1,,,,,0,32,32,32,,,,,,,,,,,,,,,,,,,,,,,,,,,,,,,,,,,,,,,,,19.262226700000042,,,,19.248166200000014,19.262226700000042,19.262226700000042,19.262226700000042,19.262226700000042,19.54790270000001,None,19.548147700000015,19.56226129999999,19.56226129999999,19.56226129999999,19.56226129999999,19.847872300000006,None,,,,,,,,,,,,,,,,,,,,,,,,,,,,,,,,,,,,,,,,,,pitolomeu,001,2025-03-21_14h24.58.586,Estimulo_ICE,2024.2.4,60.098826510315476,2025-03-21 14h25.10.268475 -0300,
Estimulo_2,33,33,0,4.4,-4.4,4.4,-4.4,2.2,-2.2,-2.2,2.2,None,None,,,,,,,,,0,0,0,1,,,,,0,33,33,33,,,,,,,,,,,,,,,,,,,,,,,,,,,,,,,,,,,,,,,,,19.862047700000005,,,,19.8482219,19.862047700000005,19.862047700000005,19.862047700000005,19.862047700000005,20.15183440000004,None,20.15237239999999,20.163279999999986,20.163279999999986,20.163279999999986,20.163279999999986,20.45156589999999,None,,,,,,,,,,,,,,,,,,,,,,,,,,,,,,,,,,,,,,,,,,pitolomeu,001,2025-03-21_14h24.58.586,Estimulo_ICE,2024.2.4,60.098826510315476,2025-03-21 14h25.10.268475 -0300,
Estimulo_2,0,0,0,,,,,,,,,,,,,,,,,,,0,0,0,1,,,,,,,,,,,,,,,,,,,,,,,,,,,,,,,,,,,,,,,,,,,,,,,,,,,,,,,,,,,,,,,,,,,,,,,20.634820700000034,20.645081100000027,21.948853600000007,,,,,,,,,,,,,,,,,,,,,,,,,,,,,,,,,,,pitolomeu,001,2025-03-21_14h24.58.586,Estimulo_ICE,2024.2.4,60.098826510315476,2025-03-21 14h25.10.268475 -0300,
Estimulo_5,0,0,0,4.4,-4.4,4.4,-4.4,2.2,-2.2,-2.2,2.2,,,,,,,None,None,,,0,1,1,4,,,,,,,,,,,,,,,,,0,0,0,0,,,,,,,,,,,,,,,,,,,,,,,,,,,,,22.028403800000035,,21.94900530000001,21.949419200000023,,,,,,,,,,,,,,,,,,,,,,22.01945410000002,22.028403800000035,22.028403800000035,22.028403800000035,22.028403800000035,22.24853669999999,None,22.248773099999994,22.262207999999987,22.262207999999987,22.262207999999987,22.262207999999987,22.56220840000003,22.56220840000003,22.56220840000003,22.56220840000003,22.548167000000035,None,,,,,,,,,,,,,,,,,pitolomeu,001,2025-03-21_14h24.58.586,Estimulo_ICE,2024.2.4,60.098826510315476,2025-03-21 14h25.10.268475 -0300,
Estimulo_5,1,1,0,4.3,-4.3,4.3,-4.3,2.2,-2.2,-2.2,2.2,,,,,,,None,None,,,0,1,1,4,,,,,,,,,,,,,,,,,0,1,1,1,,,,,,,,,,,,,,,,,,,,,,,,,,,,,22.56220840000003,,,,,,,,,,,,,,,,,,,,,,,,,22.54854660000001,22.56220840000003,22.56220840000003,22.56220840000003,22.56220840000003,22.853695000000016,None,22.854209000000026,22.86302360000002,22.86302360000002,22.86302360000002,22.86302360000002,23.162164800000028,23.162164800000028,23.162164800000028,23.162164800000028,23.148281800000007,None,,,,,,,,,,,,,,,,,pitolomeu,001,2025-03-21_14h24.58.586,Estimulo_ICE,2024.2.4,60.098826510315476,2025-03-21 14h25.10.268475 -0300,
Estimulo_5,2,2,0,4.2,-4.2,4.2,-4.2,2.2,-2.2,-2.2,2.2,,,,,,,None,None,,,0,1,1,4,,,,,,,,,,,,,,,,,0,2,2,2,,,,,,,,,,,,,,,,,,,,,,,,,,,,,23.162164800000028,,,,,,,,,,,,,,,,,,,,,,,,,23.14864399999999,23.162164800000028,23.162164800000028,23.162164800000028,23.162164800000028,23.448181500000032,None,23.44844360000002,23.462075500000026,23.462075500000026,23.462075500000026,23.462075500000026,23.76229970000003,23.76229970000003,23.76229970000003,23.76229970000003,23.748106699999994,None,23.462075500000026,23.462075500000026,23.462075500000026,23.462075500000026,,,,,,,,,,,,,pitolomeu,001,2025-03-21_14h24.58.586,Estimulo_ICE,2024.2.4,60.098826510315476,2025-03-21 14h25.10.268475 -0300,
Estimulo_5,3,3,0,4.1,-4.1,4.1,-4.1,2.2,-2.2,-2.2,2.2,,,,,,,None,None,,,0,1,1,4,,,,,,,,,,,,,,,,,0,3,3,3,,,,,,,,,,,,,,,,,,,,,,,,,,,,,23.76229970000003,,,,,,,,,,,,,,,,,,,,,,,,,23.74846819999999,23.76229970000003,23.76229970000003,23.76229970000003,23.76229970000003,24.04808860000003,None,24.048342900000023,24.06219040000002,24.06219040000002,24.06219040000002,24.06219040000002,24.3621579,24.3621579,24.3621579,24.3621579,24.34805650000004,None,24.06219040000002,24.06219040000002,24.06219040000002,24.06219040000002,,,,,,,,,,,,,pitolomeu,001,2025-03-21_14h24.58.586,Estimulo_ICE,2024.2.4,60.098826510315476,2025-03-21 14h25.10.268475 -0300,
Estimulo_5,4,4,0,4,-4,4,-4,2.2,-2.2,-2.2,2.2,,,,,,,None,None,,,0,1,1,4,,,,,,,,,,,,,,,,,0,4,4,4,,,,,,,,,,,,,,,,,,,,,,,,,,,,,24.3621579,,,,,,,,,,,,,,,,,,,,,,,,,24.348396700000023,24.3621579,24.3621579,24.3621579,24.3621579,24.64821169999999,None,24.64847580000003,24.66224920000002,24.66224920000002,24.66224920000002,24.66224920000002,,,,,24.954025300000012,None,24.66224920000002,24.66224920000002,24.66224920000002,24.66224920000002,,,,,,,,,,,,,pitolomeu,001,2025-03-21_14h24.58.586,Estimulo_ICE,2024.2.4,60.098826510315476,2025-03-21 14h25.10.268475 -0300,
Estimulo_5,5,5,0,3.9,-3.9,3.9,-3.9,2.2,-2.2,-2.2,2.2,,,,,,,['right'],None,[0.22731779999998025],[None],0,1,1,4,,,,,,,,,,,,,,,,,0,5,5,5,,,,,,,,,,,,,,,,,,,,,,,,,,,,,24.964064500000006,,,,,,,,,,,,,,,,,,,,,,,,,24.955076399999996,24.964064500000006,24.964064500000006,24.964064500000006,24.964064500000006,25.24820040000003,['right'],25.248458000000028,25.26233669999999,25.26233669999999,25.26233669999999,25.26233669999999,25.5621539,25.5621539,25.5621539,25.5621539,25.5482207,None,,,,,[0.22731779999998025],[None],,,,,,,,,,,pitolomeu,001,2025-03-21_14h24.58.586,Estimulo_ICE,2024.2.4,60.098826510315476,2025-03-21 14h25.10.268475 -0300,
Estimulo_5,6,6,0,3.8,-3.8,3.8,-3.8,2.2,-2.2,-2.2,2.2,,,,,,,None,None,,,0,1,1,4,,,,,,,,,,,,,,,,,0,6,6,6,,,,,,,,,,,,,,,,,,,,,,,,,,,,,25.5621539,,,,,,,,,,,,,,,,,,,,,,,,,25.548602800000026,25.5621539,25.5621539,25.5621539,25.5621539,25.84797470000001,None,25.848240099999998,25.862270500000022,25.862270500000022,25.862270500000022,25.862270500000022,26.162149199999988,26.162149199999988,26.162149199999988,26.162149199999988,26.148011600000018,None,25.862270500000022,25.862270500000022,25.862270500000022,25.862270500000022,,,,,,,,,,,,,pitolomeu,001,2025-03-21_14h24.58.586,Estimulo_ICE,2024.2.4,60.098826510315476,2025-03-21 14h25.10.268475 -0300,
Estimulo_5,7,7,0,3.7,-3.7,3.7,-3.7,2.2,-2.2,-2.2,2.2,,,,,,,None,None,,,0,1,1,4,,,,,,,,,,,,,,,,,0,7,7,7,,,,,,,,,,,,,,,,,,,,,,,,,,,,,26.162149199999988,,,,,,,,,,,,,,,,,,,,,,,,,26.148507400000028,26.162149199999988,26.162149199999988,26.162149199999988,26.162149199999988,26.44799720000003,None,26.448260800000014,26.462179300000003,26.462179300000003,26.462179300000003,26.462179300000003,26.76222630000001,26.76222630000001,26.76222630000001,26.76222630000001,26.74823630000003,None,26.462179300000003,26.462179300000003,26.462179300000003,26.462179300000003,,,,,,,,,,,,,pitolomeu,001,2025-03-21_14h24.58.586,Estimulo_ICE,2024.2.4,60.098826510315476,2025-03-21 14h25.10.268475 -0300,
Estimulo_5,8,8,0,3.6,-3.6,3.6,-3.6,2.2,-2.2,-2.2,2.2,,,,,,,None,None,,,0,1,1,4,,,,,,,,,,,,,,,,,0,8,8,8,,,,,,,,,,,,,,,,,,,,,,,,,,,,,26.76222630000001,,,,,,,,,,,,,,,,,,,,,,,,,26.748614400000008,26.76222630000001,26.76222630000001,26.76222630000001,26.76222630000001,27.0479603,None,27.048211600000002,27.06216280000001,27.06216280000001,27.06216280000001,27.06216280000001,27.362134700000013,27.362134700000013,27.362134700000013,27.362134700000013,27.347995700000013,None,27.06216280000001,27.06216280000001,27.06216280000001,27.06216280000001,,,,,,,,,,,,,pitolomeu,001,2025-03-21_14h24.58.586,Estimulo_ICE,2024.2.4,60.098826510315476,2025-03-21 14h25.10.268475 -0300,
Estimulo_5,9,9,0,3.5,-3.5,3.5,-3.5,2.2,-2.2,-2.2,2.2,,,,,,,None,None,,,0,1,1,4,,,,,,,,,,,,,,,,,0,9,9,9,,,,,,,,,,,,,,,,,,,,,,,,,,,,,27.362134700000013,,,,,,,,,,,,,,,,,,,,,,,,,27.348377000000028,27.362134700000013,27.362134700000013,27.362134700000013,27.362134700000013,27.648151700000028,None,27.648414600000024,27.662196400000028,27.662196400000028,27.662196400000028,27.662196400000028,27.962157200000036,27.962157200000036,27.962157200000036,27.962157200000036,27.948228099999994,None,27.662196400000028,27.662196400000028,27.662196400000028,27.662196400000028,,,,,,,,,,,,,pitolomeu,001,2025-03-21_14h24.58.586,Estimulo_ICE,2024.2.4,60.098826510315476,2025-03-21 14h25.10.268475 -0300,
Estimulo_5,10,10,0,3.39999999999999,-3.39999999999999,3.39999999999999,-3.39999999999999,2.2,-2.2,-2.2,2.2,,,,,,,None,None,,,0,1,1,4,,,,,,,,,,,,,,,,,0,10,10,10,,,,,,,,,,,,,,,,,,,,,,,,,,,,,27.962157200000036,,,,,,,,,,,,,,,,,,,,,,,,,27.948608799999988,27.962157200000036,27.962157200000036,27.962157200000036,27.962157200000036,28.248015399999986,None,28.24828050000002,28.261992899999996,28.261992899999996,28.261992899999996,28.261992899999996,28.56191849999999,28.56191849999999,28.56191849999999,28.56191849999999,28.548104300000034,None,28.261992899999996,28.261992899999996,28.261992899999996,28.261992899999996,,,,,,,,,,,,,pitolomeu,001,2025-03-21_14h24.58.586,Estimulo_ICE,2024.2.4,60.098826510315476,2025-03-21 14h25.10.268475 -0300,
Estimulo_5,11,11,0,3.29999999999999,-3.29999999999999,3.29999999999999,-3.29999999999999,2.2,-2.2,-2.2,2.2,,,,,,,None,None,,,0,1,1,4,,,,,,,,,,,,,,,,,0,11,11,11,,,,,,,,,,,,,,,,,,,,,,,,,,,,,28.56191849999999,,,,,,,,,,,,,,,,,,,,,,,,,28.548486300000036,28.56191849999999,28.56191849999999,28.56191849999999,28.56191849999999,28.85324810000003,None,28.853928800000006,28.863616000000036,28.863616000000036,28.863616000000036,28.863616000000036,,,,,29.15342340000001,None,,,,,,,,,,,,,,,,,pitolomeu,001,2025-03-21_14h24.58.586,Estimulo_ICE,2024.2.4,60.098826510315476,2025-03-21 14h25.10.268475 -0300,
Estimulo_5,12,12,0,3.19999999999999,-3.19999999999999,3.19999999999999,-3.19999999999999,2.2,-2.2,-2.2,2.2,,,,,,,None,None,,,0,1,1,4,,,,,,,,,,,,,,,,,0,12,12,12,,,,,,,,,,,,,,,,,,,,,,,,,,,,,29.16371570000001,,,,,,,,,,,,,,,,,,,,,,,,,29.154390500000034,29.16371570000001,29.16371570000001,29.16371570000001,29.16371570000001,29.44813830000004,None,29.4484018,29.462145399999997,29.462145399999997,29.462145399999997,29.462145399999997,29.762260200000014,29.762260200000014,29.762260200000014,29.762260200000014,29.748232200000018,None,,,,,,,,,,,,,,,,,pitolomeu,001,2025-03-21_14h24.58.586,Estimulo_ICE,2024.2.4,60.098826510315476,2025-03-21 14h25.10.268475 -0300,
Estimulo_5,13,13,0,3.09999999999999,-3.09999999999999,3.09999999999999,-3.09999999999999,2.2,-2.2,-2.2,2.2,,,,,,,None,None,,,0,1,1,4,,,,,,,,,,,,,,,,,0,13,13,13,,,,,,,,,,,,,,,,,,,,,,,,,,,,,29.762260200000014,,,,,,,,,,,,,,,,,,,,,,,,,29.748567500000036,29.762260200000014,29.762260200000014,29.762260200000014,29.762260200000014,30.04811490000003,None,30.048358699999994,30.06217350000003,30.06217350000003,30.06217350000003,30.06217350000003,30.36225680000001,30.36225680000001,30.36225680000001,30.36225680000001,30.348069399999986,None,30.06217350000003,30.06217350000003,30.06217350000003,30.06217350000003,,,,,,,,,,,,,pitolomeu,001,2025-03-21_14h24.58.586,Estimulo_ICE,2024.2.4,60.098826510315476,2025-03-21 14h25.10.268475 -0300,
Estimulo_5,14,14,0,2.99999999999999,-2.99999999999999,2.99999999999999,-2.99999999999999,2.2,-2.2,-2.2,2.2,,,,,,,None,None,,,0,1,1,4,,,,,,,,,,,,,,,,,0,14,14,14,,,,,,,,,,,,,,,,,,,,,,,,,,,,,30.36225680000001,,,,,,,,,,,,,,,,,,,,,,,,,30.34840250000002,30.36225680000001,30.36225680000001,30.36225680000001,30.36225680000001,30.64818059999999,None,30.648444799999993,30.662126400000034,30.662126400000034,30.662126400000034,30.662126400000034,30.9620855,30.9620855,30.9620855,30.9620855,30.948139400000002,None,30.662126400000034,30.662126400000034,30.662126400000034,30.662126400000034,,,,,,,,,,,,,pitolomeu,001,2025-03-21_14h24.58.586,Estimulo_ICE,2024.2.4,60.098826510315476,2025-03-21 14h25.10.268475 -0300,
Estimulo_5,15,15,0,2.89999999999999,-2.89999999999999,2.89999999999999,-2.89999999999999,2.2,-2.2,-2.2,2.2,,,,,,,None,None,,,0,1,1,4,,,,,,,,,,,,,,,,,0,15,15,15,,,,,,,,,,,,,,,,,,,,,,,,,,,,,30.9620855,,,,,,,,,,,,,,,,,,,,,,,,,30.94850790000004,30.9620855,30.9620855,30.9620855,30.9620855,31.24813130000001,None,31.248394500000018,31.262088100000028,31.262088100000028,31.262088100000028,31.262088100000028,31.56207310000002,31.56207310000002,31.56207310000002,31.56207310000002,31.54833100000002,None,31.262088100000028,31.262088100000028,31.262088100000028,31.262088100000028,,,,,,,,,,,,,pitolomeu,001,2025-03-21_14h24.58.586,Estimulo_ICE,2024.2.4,60.098826510315476,2025-03-21 14h25.10.268475 -0300,
Estimulo_5,16,16,0,2.79999999999999,-2.79999999999999,2.79999999999999,-2.79999999999999,2.2,-2.2,-2.2,2.2,,,,,,,None,None,,,0,1,1,4,,,,,,,,,,,,,,,,,0,16,16,16,,,,,,,,,,,,,,,,,,,,,,,,,,,,,31.56207310000002,,,,,,,,,,,,,,,,,,,,,,,,,31.5486942,31.56207310000002,31.56207310000002,31.56207310000002,31.56207310000002,31.848174599999993,None,31.848436900000024,31.86230310000002,31.86230310000002,31.86230310000002,31.86230310000002,32.16463540000001,32.16463540000001,32.16463540000001,32.16463540000001,32.14825719999999,None,31.86230310000002,31.86230310000002,31.86230310000002,31.86230310000002,,,,,,,,,,,,,pitolomeu,001,2025-03-21_14h24.58.586,Estimulo_ICE,2024.2.4,60.098826510315476,2025-03-21 14h25.10.268475 -0300,
Estimulo_5,17,17,0,2.69999999999999,-2.69999999999999,2.69999999999999,-2.69999999999999,2.2,-2.2,-2.2,2.2,,,,,,,None,None,,,0,1,1,4,,,,,,,,,,,,,,,,,0,17,17,17,,,,,,,,,,,,,,,,,,,,,,,,,,,,,32.16463540000001,,,,,,,,,,,,,,,,,,,,,,,,,32.14863500000001,32.16463540000001,32.16463540000001,32.16463540000001,32.16463540000001,32.451642600000014,None,32.45217910000002,32.463241900000014,32.463241900000014,32.463241900000014,32.463241900000014,,,,,32.75157790000003,None,,,,,,,,,,,,,,,,,pitolomeu,001,2025-03-21_14h24.58.586,Estimulo_ICE,2024.2.4,60.098826510315476,2025-03-21 14h25.10.268475 -0300,
Estimulo_5,18,18,0,2.59999999999999,-2.59999999999999,2.59999999999999,-2.59999999999999,2.2,-2.2,-2.2,2.2,,,,,,,None,None,,,0,1,1,4,,,,,,,,,,,,,,,,,0,18,18,18,,,,,,,,,,,,,,,,,,,,,,,,,,,,,32.763222799999994,,,,,,,,,,,,,,,,,,,,,,,,,32.75236330000001,32.763222799999994,32.763222799999994,32.763222799999994,32.763222799999994,33.0518907,None,33.05243300000001,33.0630506,33.0630506,33.0630506,33.0630506,33.3620176,33.3620176,33.3620176,33.3620176,33.34811210000004,None,,,,,,,,,,,,,,,,,pitolomeu,001,2025-03-21_14h24.58.586,Estimulo_ICE,2024.2.4,60.098826510315476,2025-03-21 14h25.10.268475 -0300,
Estimulo_5,19,19,0,2.49999999999999,-2.49999999999999,2.49999999999999,-2.49999999999999,2.2,-2.2,-2.2,2.2,,,,,,,None,None,,,0,1,1,4,,,,,,,,,,,,,,,,,0,19,19,19,,,,,,,,,,,,,,,,,,,,,,,,,,,,,33.3620176,,,,,,,,,,,,,,,,,,,,,,,,,33.34849120000001,33.3620176,33.3620176,33.3620176,33.3620176,33.64809170000001,None,33.64835310000001,33.66207960000003,33.66207960000003,33.66207960000003,33.66207960000003,33.96203209999999,33.96203209999999,33.96203209999999,33.96203209999999,33.94805200000002,None,33.66207960000003,33.66207960000003,33.66207960000003,33.66207960000003,,,,,,,,,,,,,pitolomeu,001,2025-03-21_14h24.58.586,Estimulo_ICE,2024.2.4,60.098826510315476,2025-03-21 14h25.10.268475 -0300,
Estimulo_5,20,20,0,2.39999999999999,-2.39999999999999,2.39999999999999,-2.39999999999999,2.2,-2.2,-2.2,2.2,,,,,,,None,None,,,0,1,1,4,,,,,,,,,,,,,,,,,0,20,20,20,,,,,,,,,,,,,,,,,,,,,,,,,,,,,33.96203209999999,,,,,,,,,,,,,,,,,,,,,,,,,33.94841360000004,33.96203209999999,33.96203209999999,33.96203209999999,33.96203209999999,34.24813449999999,None,34.24840080000001,34.262017300000025,34.262017300000025,34.262017300000025,34.262017300000025,34.5622396,34.5622396,34.5622396,34.5622396,34.54818160000002,None,34.262017300000025,34.262017300000025,34.262017300000025,34.262017300000025,,,,,,,,,,,,,pitolomeu,001,2025-03-21_14h24.58.586,Estimulo_ICE,2024.2.4,60.098826510315476,2025-03-21 14h25.10.268475 -0300,
Estimulo_5,21,21,0,2.29999999999999,-2.29999999999999,2.29999999999999,-2.29999999999999,2.2,-2.2,-2.2,2.2,,,,,,,None,None,,,0,1,1,4,,,,,,,,,,,,,,,,,0,21,21,21,,,,,,,,,,,,,,,,,,,,,,,,,,,,,34.5622396,,,,,,,,,,,,,,,,,,,,,,,,,34.548512800000026,34.5622396,34.5622396,34.5622396,34.5622396,34.85005560000002,None,34.8504853,34.8626395,34.8626395,34.8626395,34.8626395,35.16236330000004,35.16236330000004,35.16236330000004,35.16236330000004,35.14833429999999,None,,,,,,,,,,,,,,,,,pitolomeu,001,2025-03-21_14h24.58.586,Estimulo_ICE,2024.2.4,60.098826510315476,2025-03-21 14h25.10.268475 -0300,
Estimulo_5,22,22,0,2.19999999999999,-2.19999999999999,2.19999999999999,-2.19999999999999,2.2,-2.2,-2.2,2.2,,,,,,,None,None,,,0,1,1,4,,,,,,,,,,,,,,,,,0,22,22,22,,,,,,,,,,,,,,,,,,,,,,,,,,,,,35.16236330000004,,,,,,,,,,,,,,,,,,,,,,,,,35.14874420000001,35.16236330000004,35.16236330000004,35.16236330000004,35.16236330000004,35.44840210000001,None,35.44867750000003,35.46211199999999,35.46211199999999,35.46211199999999,35.46211199999999,35.7622078,35.7622078,35.7622078,35.7622078,35.74833410000002,None,35.46211199999999,35.46211199999999,35.46211199999999,35.46211199999999,,,,,,,,,,,,,pitolomeu,001,2025-03-21_14h24.58.586,Estimulo_ICE,2024.2.4,60.098826510315476,2025-03-21 14h25.10.268475 -0300,
Estimulo_5,23,23,0,2.09999999999999,-2.09999999999999,2.09999999999999,-2.09999999999999,2.2,-2.2,-2.2,2.2,,,,,,,None,None,,,0,1,1,4,,,,,,,,,,,,,,,,,0,23,23,23,,,,,,,,,,,,,,,,,,,,,,,,,,,,,35.7622078,,,,,,,,,,,,,,,,,,,,,,,,,35.74873550000001,35.7622078,35.7622078,35.7622078,35.7622078,36.048189200000024,None,36.04844480000003,36.062125700000024,36.062125700000024,36.062125700000024,36.062125700000024,36.36208770000002,36.36208770000002,36.36208770000002,36.36208770000002,36.34824120000002,None,36.062125700000024,36.062125700000024,36.062125700000024,36.062125700000024,,,,,,,,,,,,,pitolomeu,001,2025-03-21_14h24.58.586,Estimulo_ICE,2024.2.4,60.098826510315476,2025-03-21 14h25.10.268475 -0300,
Estimulo_5,24,24,0,1.99999999999999,-1.99999999999999,1.99999999999999,-1.99999999999999,2.2,-2.2,-2.2,2.2,,,,,,,None,None,,,0,1,1,4,,,,,,,,,,,,,,,,,0,24,24,24,,,,,,,,,,,,,,,,,,,,,,,,,,,,,36.36208770000002,,,,,,,,,,,,,,,,,,,,,,,,,36.34861840000002,36.36208770000002,36.36208770000002,36.36208770000002,36.36208770000002,36.647909700000014,None,36.648174100000006,36.662103900000034,36.662103900000034,36.662103900000034,36.662103900000034,,,,,36.95134390000004,None,36.662103900000034,36.662103900000034,36.662103900000034,36.662103900000034,,,,,,,,,,,,,pitolomeu,001,2025-03-21_14h24.58.586,Estimulo_ICE,2024.2.4,60.098826510315476,2025-03-21 14h25.10.268475 -0300,
Estimulo_5,25,25,0,1.89999999999999,-1.89999999999999,1.89999999999999,-1.89999999999999,2.2,-2.2,-2.2,2.2,,,,,,,None,None,,,0,1,1,4,,,,,,,,,,,,,,,,,0,25,25,25,,,,,,,,,,,,,,,,,,,,,,,,,,,,,36.96227470000002,,,,,,,,,,,,,,,,,,,,,,,,,36.9518008,36.96227470000002,36.96227470000002,36.96227470000002,36.96227470000002,37.24794650000001,None,37.248209599999996,37.26215180000003,37.26215180000003,37.26215180000003,37.26215180000003,37.56206070000002,37.56206070000002,37.56206070000002,37.56206070000002,37.548105899999996,None,37.26215180000003,37.26215180000003,37.26215180000003,37.26215180000003,,,,,,,,,,,,,pitolomeu,001,2025-03-21_14h24.58.586,Estimulo_ICE,2024.2.4,60.098826510315476,2025-03-21 14h25.10.268475 -0300,
Estimulo_5,26,26,0,1.79999999999999,-1.79999999999999,1.79999999999999,-1.79999999999999,2.2,-2.2,-2.2,2.2,,,,,,,None,None,,,0,1,1,4,,,,,,,,,,,,,,,,,0,26,26,26,,,,,,,,,,,,,,,,,,,,,,,,,,,,,37.56206070000002,,,,,,,,,,,,,,,,,,,,,,,,,37.54848820000001,37.56206070000002,37.56206070000002,37.56206070000002,37.56206070000002,37.848016900000005,None,37.84827840000003,37.86218439999999,37.86218439999999,37.86218439999999,37.86218439999999,38.162075200000004,38.162075200000004,38.162075200000004,38.162075200000004,38.14809489999999,None,37.86218439999999,37.86218439999999,37.86218439999999,37.86218439999999,,,,,,,,,,,,,pitolomeu,001,2025-03-21_14h24.58.586,Estimulo_ICE,2024.2.4,60.098826510315476,2025-03-21 14h25.10.268475 -0300,
Estimulo_5,27,27,0,1.69999999999999,-1.69999999999999,1.69999999999999,-1.69999999999999,2.2,-2.2,-2.2,2.2,,,,,,,None,None,,,0,1,1,4,,,,,,,,,,,,,,,,,0,27,27,27,,,,,,,,,,,,,,,,,,,,,,,,,,,,,38.162075200000004,,,,,,,,,,,,,,,,,,,,,,,,,38.148474599999986,38.162075200000004,38.162075200000004,38.162075200000004,38.162075200000004,38.4482026,None,38.448463100000026,38.462043600000015,38.462043600000015,38.462043600000015,38.462043600000015,38.761918500000036,38.761918500000036,38.761918500000036,38.761918500000036,38.748108900000034,None,38.462043600000015,38.462043600000015,38.462043600000015,38.462043600000015,,,,,,,,,,,,,pitolomeu,001,2025-03-21_14h24.58.586,Estimulo_ICE,2024.2.4,60.098826510315476,2025-03-21 14h25.10.268475 -0300,
Estimulo_5,28,28,0,1.59999999999999,-1.59999999999999,1.59999999999999,-1.59999999999999,2.2,-2.2,-2.2,2.2,,,,,,,None,None,,,0,1,1,4,,,,,,,,,,,,,,,,,0,28,28,28,,,,,,,,,,,,,,,,,,,,,,,,,,,,,38.761918500000036,,,,,,,,,,,,,,,,,,,,,,,,,38.74847360000001,38.761918500000036,38.761918500000036,38.761918500000036,38.761918500000036,39.047928300000024,None,39.048189500000035,39.0620634,39.0620634,39.0620634,39.0620634,39.36185440000003,39.36185440000003,39.36185440000003,39.36185440000003,39.34796460000001,None,39.0620634,39.0620634,39.0620634,39.0620634,,,,,,,,,,,,,pitolomeu,001,2025-03-21_14h24.58.586,Estimulo_ICE,2024.2.4,60.098826510315476,2025-03-21 14h25.10.268475 -0300,
Estimulo_5,29,29,0,1.49999999999999,-1.49999999999998,1.49999999999999,-1.49999999999998,2.2,-2.2,-2.2,2.2,,,,,,,None,None,,,0,1,1,4,,,,,,,,,,,,,,,,,0,29,29,29,,,,,,,,,,,,,,,,,,,,,,,,,,,,,39.36185440000003,,,,,,,,,,,,,,,,,,,,,,,,,39.348328200000026,39.36185440000003,39.36185440000003,39.36185440000003,39.36185440000003,39.64803330000001,None,39.64829980000002,39.66196780000001,39.66196780000001,39.66196780000001,39.66196780000001,39.96210110000004,39.96210110000004,39.96210110000004,39.96210110000004,39.94809750000002,None,39.66196780000001,39.66196780000001,39.66196780000001,39.66196780000001,,,,,,,,,,,,,pitolomeu,001,2025-03-21_14h24.58.586,Estimulo_ICE,2024.2.4,60.098826510315476,2025-03-21 14h25.10.268475 -0300,
Estimulo_5,30,30,0,1.39999999999999,-1.39999999999998,1.39999999999999,-1.39999999999998,2.2,-2.2,-2.2,2.2,,,,,,,None,None,,,0,1,1,4,,,,,,,,,,,,,,,,,0,30,30,30,,,,,,,,,,,,,,,,,,,,,,,,,,,,,39.96210110000004,,,,,,,,,,,,,,,,,,,,,,,,,39.94847970000001,39.96210110000004,39.96210110000004,39.96210110000004,39.96210110000004,40.24983950000001,None,40.2500814,40.26208009999999,40.26208009999999,40.26208009999999,40.26208009999999,,,,,40.550561800000025,None,,,,,,,,,,,,,,,,,pitolomeu,001,2025-03-21_14h24.58.586,Estimulo_ICE,2024.2.4,60.098826510315476,2025-03-21 14h25.10.268475 -0300,
Estimulo_5,31,31,0,1.29999999999999,-1.29999999999998,1.29999999999999,-1.29999999999998,2.2,-2.2,-2.2,2.2,,,,,,,None,None,,,0,1,1,4,,,,,,,,,,,,,,,,,0,31,31,31,,,,,,,,,,,,,,,,,,,,,,,,,,,,,40.56278200000003,,,,,,,,,,,,,,,,,,,,,,,,,40.55123120000002,40.56278200000003,40.56278200000003,40.56278200000003,40.56278200000003,40.8504332,None,40.850884699999995,40.862829799999986,40.862829799999986,40.862829799999986,40.862829799999986,,,,,41.15075740000003,None,,,,,,,,,,,,,,,,,pitolomeu,001,2025-03-21_14h24.58.586,Estimulo_ICE,2024.2.4,60.098826510315476,2025-03-21 14h25.10.268475 -0300,
Estimulo_5,32,32,0,1.19999999999999,-1.19999999999998,1.19999999999999,-1.19999999999998,2.2,-2.2,-2.2,2.2,,,,,,,None,None,,,0,1,1,4,,,,,,,,,,,,,,,,,0,32,32,32,,,,,,,,,,,,,,,,,,,,,,,,,,,,,41.1627747,,,,,,,,,,,,,,,,,,,,,,,,,41.1514272,41.1627747,41.1627747,41.1627747,41.1627747,41.4502779,None,41.45073289999999,41.462772700000016,41.462772700000016,41.462772700000016,41.462772700000016,41.762286500000016,41.762286500000016,41.762286500000016,41.762286500000016,41.748537699999986,None,,,,,,,,,,,,,,,,,pitolomeu,001,2025-03-21_14h24.58.586,Estimulo_ICE,2024.2.4,60.098826510315476,2025-03-21 14h25.10.268475 -0300,
Estimulo_5,33,33,0,1.09999999999999,-1.09999999999998,1.09999999999999,-1.09999999999998,2.2,-2.2,-2.2,2.2,,,,,,,None,None,,,0,1,1,4,,,,,,,,,,,,,,,,,0,33,33,33,,,,,,,,,,,,,,,,,,,,,,,,,,,,,41.762286500000016,,,,,,,,,,,,,,,,,,,,,,,,,41.7489688,41.762286500000016,41.762286500000016,41.762286500000016,41.762286500000016,42.0486861,None,42.048989800000015,42.06221690000001,42.06221690000001,42.06221690000001,42.06221690000001,42.46157240000002,42.46157240000002,42.46157240000002,42.46157240000002,42.34859720000003,None,42.06221690000001,42.06221690000001,42.06221690000001,42.06221690000001,,,,,,,,,,,,,pitolomeu,001,2025-03-21_14h24.58.586,Estimulo_ICE,2024.2.4,60.098826510315476,2025-03-21 14h25.10.268475 -0300,
Estimulo_5,1,1,0,,,,,,,,,,,,,,,,,,,0,1,1,4,,,,,,,,,,,,,,,,,,,,,,,,,,,,,,,,,,,,,,,,,,,,,,,,,,,,,,,,,,,,,,,,,,,,,,,42.44598510000003,42.46157240000002,43.85031750000002,,,,,,,,,,,,,,,,,,,,,,,,,,,,,,,,,,,pitolomeu,001,2025-03-21_14h24.58.586,Estimulo_ICE,2024.2.4,60.098826510315476,2025-03-21 14h25.10.268475 -0300,
Estimulo_3,0,0,0,2.2,-2.2,-2.2,2.2,4.4,-4.4,4.4,-4.4,None,None,,,,,,,,,0,2,2,2,,,,,,,,,0,0,0,0,,,,,,,,,,,,,,,,,,,,,,,,,,,,,,,,,,,,,43.91177429999999,,43.85050970000003,43.8510594,43.90156569999999,43.91177429999999,43.91177429999999,43.91177429999999,43.91177429999999,44.16424260000002,,44.1644943,44.1788396,44.1788396,44.1788396,44.1788396,44.46414420000002,,,,,,,,,,,,,,,,,,,,,,,,,,,,,,,,,None,None,,,,,,,,,pitolomeu,001,2025-03-21_14h24.58.586,Estimulo_ICE,2024.2.4,60.098826510315476,2025-03-21 14h25.10.268475 -0300,
Estimulo_3,1,1,0,2.2,-2.2,-2.2,2.2,4.3,-4.3,4.3,-4.3,None,None,,,,,,,,,0,2,2,2,,,,,,,,,0,1,1,1,,,,,,,,,,,,,,,,,,,,,,,,,,,,,,,,,,,,,44.4787973,,,,44.4644912,44.4787973,44.4787973,44.4787973,44.4787973,44.76431480000002,,44.76457199999999,44.77854610000003,44.77854610000003,44.77854610000003,44.77854610000003,45.064045599999986,,,,,,,,,,,,,,,,,,,,,,,,,,,,,,,,,None,None,,,,,,,,,pitolomeu,001,2025-03-21_14h24.58.586,Estimulo_ICE,2024.2.4,60.098826510315476,2025-03-21 14h25.10.268475 -0300,
Estimulo_3,2,2,0,2.2,-2.2,-2.2,2.2,4.2,-4.2,4.2,-4.2,None,None,,,,,,,,,0,2,2,2,,,,,,,,,0,2,2,2,,,,,,,,,,,,,,,,,,,,,,,,,,,,,,,,,,,,,45.07863639999999,,,,45.06441699999999,45.07863639999999,45.07863639999999,45.07863639999999,45.07863639999999,45.3642504,,45.36450580000002,45.37851069999999,45.37851069999999,45.37851069999999,45.37851069999999,45.664181600000006,,,,,,,,,,,,,,,,,,,,,,,,,,,,,,,,,None,None,,,,,,,,,pitolomeu,001,2025-03-21_14h24.58.586,Estimulo_ICE,2024.2.4,60.098826510315476,2025-03-21 14h25.10.268475 -0300,
Estimulo_3,3,3,0,2.2,-2.2,-2.2,2.2,4.1,-4.1,4.1,-4.1,['up'],None,,,[0.2098023000000353],[None],,,,,0,2,2,2,,,,,,,,,0,3,3,3,,,,,,,,,,,,,,,,,,,,,,,,,,,,,,,,,,,,,45.6786869,,,,45.66454670000002,45.6786869,45.6786869,45.6786869,45.6786869,45.964238300000034,,45.96451339999999,45.978687200000024,45.978687200000024,45.978687200000024,45.978687200000024,46.26436660000002,,,,,,,,,,,,,,,,,,,,,,,,,,,,,,,,,['up'],None,[0.2098023000000353],[None],,,,,,,pitolomeu,001,2025-03-21_14h24.58.586,Estimulo_ICE,2024.2.4,60.098826510315476,2025-03-21 14h25.10.268475 -0300,
Estimulo_3,4,4,0,2.2,-2.2,-2.2,2.2,4,-4,4,-4,None,None,,,,,,,,,0,2,2,2,,,,,,,,,0,4,4,4,,,,,,,,,,,,,,,,,,,,,,,,,,,,,,,,,,,,,46.27877520000004,,,,46.26479260000002,46.27877520000004,46.27877520000004,46.27877520000004,46.27877520000004,46.5670983,,46.5675559,46.57952390000003,46.57952390000003,46.57952390000003,46.57952390000003,46.864709000000005,,,,,,,,,,,,,,,,,,,,,,,,,,,,,,,,,None,None,,,,,,,,,pitolomeu,001,2025-03-21_14h24.58.586,Estimulo_ICE,2024.2.4,60.098826510315476,2025-03-21 14h25.10.268475 -0300,
Estimulo_3,5,5,0,2.2,-2.2,-2.2,2.2,3.9,-3.9,3.9,-3.9,None,None,,,,,,,,,0,2,2,2,,,,,,,,,0,5,5,5,,,,,,,,,,,,,,,,,,,,,,,,,,,,,,,,,,,,,46.87879609999999,,,,46.86512600000003,46.87879609999999,46.87879609999999,46.87879609999999,46.87879609999999,47.16480139999999,,47.165087700000015,47.17880740000004,47.17880740000004,47.17880740000004,47.17880740000004,47.464803200000006,,,,,,,,,,,,,,,,,,,,,,,,,,,,,,,,,None,None,,,,,,,,,pitolomeu,001,2025-03-21_14h24.58.586,Estimulo_ICE,2024.2.4,60.098826510315476,2025-03-21 14h25.10.268475 -0300,
Estimulo_3,6,6,0,2.2,-2.2,-2.2,2.2,3.8,-3.8,3.8,-3.8,None,None,,,,,,,,,0,2,2,2,,,,,,,,,0,6,6,6,,,,,,,,,,,,,,,,,,,,,,,,,,,,,,,,,,,,,47.478754200000026,,,,47.465223500000036,47.478754200000026,47.478754200000026,47.478754200000026,47.478754200000026,47.76476960000002,,47.76505270000001,47.77876509999999,47.77876509999999,47.77876509999999,47.77876509999999,48.06443899999999,,,,,,,,,,,,,,,,,,,,,,,,,,,,,,,,,None,None,,,,,,,,,pitolomeu,001,2025-03-21_14h24.58.586,Estimulo_ICE,2024.2.4,60.098826510315476,2025-03-21 14h25.10.268475 -0300,
Estimulo_3,7,7,0,2.2,-2.2,-2.2,2.2,3.7,-3.7,3.7,-3.7,None,None,,,,,,,,,0,2,2,2,,,,,,,,,0,7,7,7,,,,,,,,,,,,,,,,,,,,,,,,,,,,,,,,,,,,,48.0786956,,,,48.06480160000001,48.0786956,48.0786956,48.0786956,48.0786956,48.3641404,,48.3643902,48.37865249999999,48.37865249999999,48.37865249999999,48.37865249999999,48.66426390000004,,,,,,,,,,,,,,,,,,,,,,,,,,,,,,,,,None,None,,,,,,,,,pitolomeu,001,2025-03-21_14h24.58.586,Estimulo_ICE,2024.2.4,60.098826510315476,2025-03-21 14h25.10.268475 -0300,
Estimulo_3,8,8,0,2.2,-2.2,-2.2,2.2,3.6,-3.6,3.6,-3.6,None,None,,,,,,,,,0,2,2,2,,,,,,,,,0,8,8,8,,,,,,,,,,,,,,,,,,,,,,,,,,,,,,,,,,,,,48.67853960000002,,,,48.664628400000026,48.67853960000002,48.67853960000002,48.67853960000002,48.67853960000002,48.96432930000003,,48.96457730000003,48.978678100000025,48.978678100000025,48.978678100000025,48.978678100000025,49.2670602,,,,,,,,,,,,,,,,,,,,,,,,,,,,,,,,,None,None,,,,,,,,,pitolomeu,001,2025-03-21_14h24.58.586,Estimulo_ICE,2024.2.4,60.098826510315476,2025-03-21 14h25.10.268475 -0300,
Estimulo_3,9,9,0,2.2,-2.2,-2.2,2.2,3.5,-3.5,3.5,-3.5,None,None,,,,,,,,,0,2,2,2,,,,,,,,,0,9,9,9,,,,,,,,,,,,,,,,,,,,,,,,,,,,,,,,,,,,,49.27935009999999,,,,49.267717300000015,49.27935009999999,49.27935009999999,49.27935009999999,49.27935009999999,49.56675000000001,,49.567200000000014,49.57965490000004,49.57965490000004,49.57965490000004,49.57965490000004,49.86685140000003,,,,,,,,,,,,,,,,,,,,,,,,,,,,,,,,,None,None,,,,,,,,,pitolomeu,001,2025-03-21_14h24.58.586,Estimulo_ICE,2024.2.4,60.098826510315476,2025-03-21 14h25.10.268475 -0300,
Estimulo_3,10,10,0,2.2,-2.2,-2.2,2.2,3.39999999999999,-3.39999999999999,3.39999999999999,-3.39999999999999,None,None,,,,,,,,,0,2,2,2,,,,,,,,,0,10,10,10,,,,,,,,,,,,,,,,,,,,,,,,,,,,,,,,,,,,,49.87915600000002,,,,49.86751889999999,49.87915600000002,49.87915600000002,49.87915600000002,49.87915600000002,50.16462640000003,,50.16491410000003,50.178759300000024,50.178759300000024,50.178759300000024,50.178759300000024,50.464542900000026,,,,,,,,,,,,,,,,,,,,,,,,,,,,,,,,,None,None,,,,,,,,,pitolomeu,001,2025-03-21_14h24.58.586,Estimulo_ICE,2024.2.4,60.098826510315476,2025-03-21 14h25.10.268475 -0300,
Estimulo_3,11,11,0,2.2,-2.2,-2.2,2.2,3.29999999999999,-3.29999999999999,3.29999999999999,-3.29999999999999,None,None,,,,,,,,,0,2,2,2,,,,,,,,,0,11,11,11,,,,,,,,,,,,,,,,,,,,,,,,,,,,,,,,,,,,,50.47876480000002,,,,50.46496510000003,50.47876480000002,50.47876480000002,50.47876480000002,50.47876480000002,50.765158799999995,,50.76551360000002,50.7787687,50.7787687,50.7787687,50.7787687,51.06432590000003,,,,,,,,,,,,,,,,,,,,,,,,,,,,,,,,,None,None,,,,,,,,,pitolomeu,001,2025-03-21_14h24.58.586,Estimulo_ICE,2024.2.4,60.098826510315476,2025-03-21 14h25.10.268475 -0300,
Estimulo_3,12,12,0,2.2,-2.2,-2.2,2.2,3.19999999999999,-3.19999999999999,3.19999999999999,-3.19999999999999,None,None,,,,,,,,,0,2,2,2,,,,,,,,,0,12,12,12,,,,,,,,,,,,,,,,,,,,,,,,,,,,,,,,,,,,,51.07870700000001,,,,51.0646964,51.07870700000001,51.07870700000001,51.07870700000001,51.07870700000001,51.36531150000002,,51.3656694,51.37861650000002,51.37861650000002,51.37861650000002,51.37861650000002,51.667493000000036,,,,,,,,,,,,,,,,,,,,,,,,,,,,,,,,,None,None,,,,,,,,,pitolomeu,001,2025-03-21_14h24.58.586,Estimulo_ICE,2024.2.4,60.098826510315476,2025-03-21 14h25.10.268475 -0300,
Estimulo_3,13,13,0,2.2,-2.2,-2.2,2.2,3.09999999999999,-3.09999999999999,3.09999999999999,-3.09999999999999,None,None,,,,,,,,,0,2,2,2,,,,,,,,,0,13,13,13,,,,,,,,,,,,,,,,,,,,,,,,,,,,,,,,,,,,,51.6796167,,,,51.668242099999986,51.6796167,51.6796167,51.6796167,51.6796167,51.96406619999999,,51.9642958,51.978582500000016,51.978582500000016,51.978582500000016,51.978582500000016,52.267618700000014,,,,,,,,,,,,,,,,,,,,,,,,,,,,,,,,,None,None,,,,,,,,,pitolomeu,001,2025-03-21_14h24.58.586,Estimulo_ICE,2024.2.4,60.098826510315476,2025-03-21 14h25.10.268475 -0300,
Estimulo_3,14,14,0,2.2,-2.2,-2.2,2.2,2.99999999999999,-2.99999999999999,2.99999999999999,-2.99999999999999,None,None,,,,,,,,,0,2,2,2,,,,,,,,,0,14,14,14,,,,,,,,,,,,,,,,,,,,,,,,,,,,,,,,,,,,,52.27950950000002,,,,52.2683773,52.27950950000002,52.27950950000002,52.27950950000002,52.27950950000002,52.5676249,,52.56813890000001,52.5795971,52.5795971,52.5795971,52.5795971,52.86547010000004,,,,,,,,,,,,,,,,,,,,,,,,,,,,,,,,,None,None,,,,,,,,,pitolomeu,001,2025-03-21_14h24.58.586,Estimulo_ICE,2024.2.4,60.098826510315476,2025-03-21 14h25.10.268475 -0300,
Estimulo_3,15,15,0,2.2,-2.2,-2.2,2.2,2.89999999999999,-2.89999999999999,2.89999999999999,-2.89999999999999,None,None,,,,,,,,,0,2,2,2,,,,,,,,,0,15,15,15,,,,,,,,,,,,,,,,,,,,,,,,,,,,,,,,,,,,,52.87894800000004,,,,52.86599180000002,52.87894800000004,52.87894800000004,52.87894800000004,52.87894800000004,53.16635430000002,,53.16677050000004,53.179260699999986,53.179260699999986,53.179260699999986,53.179260699999986,53.46616230000001,,,,,,,,,,,,,,,,,,,,,,,,,,,,,,,,,None,None,,,,,,,,,pitolomeu,001,2025-03-21_14h24.58.586,Estimulo_ICE,2024.2.4,60.098826510315476,2025-03-21 14h25.10.268475 -0300,
Estimulo_3,16,16,0,2.2,-2.2,-2.2,2.2,2.79999999999999,-2.79999999999999,2.79999999999999,-2.79999999999999,None,None,,,,,,,,,0,2,2,2,,,,,,,,,0,16,16,16,,,,,,,,,,,,,,,,,,,,,,,,,,,,,,,,,,,,,53.479055800000026,,,,53.46676289999999,53.479055800000026,53.479055800000026,53.479055800000026,53.479055800000026,53.7644732,,53.7647063,53.778609500000016,53.778609500000016,53.778609500000016,53.778609500000016,54.066214,,,,,,,,,,,,,,,,,,,,,,,,,,,,,,,,,None,None,,,,,,,,,pitolomeu,001,2025-03-21_14h24.58.586,Estimulo_ICE,2024.2.4,60.098826510315476,2025-03-21 14h25.10.268475 -0300,
Estimulo_3,17,17,0,2.2,-2.2,-2.2,2.2,2.69999999999999,-2.69999999999999,2.69999999999999,-2.69999999999999,None,None,,,,,,,,,0,2,2,2,,,,,,,,,0,17,17,17,,,,,,,,,,,,,,,,,,,,,,,,,,,,,,,,,,,,,54.07921909999999,,,,54.06679700000001,54.07921909999999,54.07921909999999,54.07921909999999,54.07921909999999,54.36443300000002,,54.36470200000002,54.37872020000003,54.37872020000003,54.37872020000003,54.37872020000003,54.66701449999999,,,,,,,,,,,,,,,,,,,,,,,,,,,,,,,,,None,None,,,,,,,,,pitolomeu,001,2025-03-21_14h24.58.586,Estimulo_ICE,2024.2.4,60.098826510315476,2025-03-21 14h25.10.268475 -0300,
Estimulo_3,18,18,0,2.2,-2.2,-2.2,2.2,2.59999999999999,-2.59999999999999,2.59999999999999,-2.59999999999999,None,None,,,,,,,,,0,2,2,2,,,,,,,,,0,18,18,18,,,,,,,,,,,,,,,,,,,,,,,,,,,,,,,,,,,,,54.67942800000003,,,,54.66778479999999,54.67942800000003,54.67942800000003,54.67942800000003,54.67942800000003,54.9654587,,54.96577500000001,54.97882040000002,54.97882040000002,54.97882040000002,54.97882040000002,55.26404560000003,,,,,,,,,,,,,,,,,,,,,,,,,,,,,,,,,None,None,,,,,,,,,pitolomeu,001,2025-03-21_14h24.58.586,Estimulo_ICE,2024.2.4,60.098826510315476,2025-03-21 14h25.10.268475 -0300,
Estimulo_3,19,19,0,2.2,-2.2,-2.2,2.2,2.49999999999999,-2.49999999999999,2.49999999999999,-2.49999999999999,None,None,,,,,,,,,0,2,2,2,,,,,,,,,0,19,19,19,,,,,,,,,,,,,,,,,,,,,,,,,,,,,,,,,,,,,55.2785164,,,,55.26442410000004,55.2785164,55.2785164,55.2785164,55.2785164,55.56669850000003,,55.56714779999999,55.57957040000002,55.57957040000002,55.57957040000002,55.57957040000002,55.86797250000001,,,,,,,,,,,,,,,,,,,,,,,,,,,,,,,,,None,None,,,,,,,,,pitolomeu,001,2025-03-21_14h24.58.586,Estimulo_ICE,2024.2.4,60.098826510315476,2025-03-21 14h25.10.268475 -0300,
Estimulo_3,20,20,0,2.2,-2.2,-2.2,2.2,2.39999999999999,-2.39999999999999,2.39999999999999,-2.39999999999999,None,None,,,,,,,,,0,2,2,2,,,,,,,,,0,20,20,20,,,,,,,,,,,,,,,,,,,,,,,,,,,,,,,,,,,,,55.879275800000016,,,,55.86901750000004,55.879275800000016,55.879275800000016,55.879275800000016,55.879275800000016,56.166632600000014,,56.167092300000036,56.179497000000026,56.179497000000026,56.179497000000026,56.179497000000026,56.4666608,,,,,,,,,,,,,,,,,,,,,,,,,,,,,,,,,None,None,,,,,,,,,pitolomeu,001,2025-03-21_14h24.58.586,Estimulo_ICE,2024.2.4,60.098826510315476,2025-03-21 14h25.10.268475 -0300,
Estimulo_3,21,21,0,2.2,-2.2,-2.2,2.2,2.29999999999999,-2.29999999999999,2.29999999999999,-2.29999999999999,None,None,,,,,,,,,0,2,2,2,,,,,,,,,0,21,21,21,,,,,,,,,,,,,,,,,,,,,,,,,,,,,,,,,,,,,56.4792784,,,,56.46732589999999,56.4792784,56.4792784,56.4792784,56.4792784,56.76415309999999,,56.764398700000015,56.77878420000002,56.77878420000002,56.77878420000002,56.77878420000002,57.0641981,,,,,,,,,,,,,,,,,,,,,,,,,,,,,,,,,None,None,,,,,,,,,pitolomeu,001,2025-03-21_14h24.58.586,Estimulo_ICE,2024.2.4,60.098826510315476,2025-03-21 14h25.10.268475 -0300,
Estimulo_3,22,22,0,2.2,-2.2,-2.2,2.2,2.19999999999999,-2.19999999999999,2.19999999999999,-2.19999999999999,None,None,,,,,,,,,0,2,2,2,,,,,,,,,0,22,22,22,,,,,,,,,,,,,,,,,,,,,,,,,,,,,,,,,,,,,57.078488300000004,,,,57.06456830000002,57.078488300000004,57.078488300000004,57.078488300000004,57.078488300000004,57.36407209999999,,57.364322000000016,57.37845370000002,57.37845370000002,57.37845370000002,57.37845370000002,57.664015000000006,,,,,,,,,,,,,,,,,,,,,,,,,,,,,,,,,None,None,,,,,,,,,pitolomeu,001,2025-03-21_14h24.58.586,Estimulo_ICE,2024.2.4,60.098826510315476,2025-03-21 14h25.10.268475 -0300,
Estimulo_3,23,23,0,2.2,-2.2,-2.2,2.2,2.09999999999999,-2.09999999999999,2.09999999999999,-2.09999999999999,None,None,,,,,,,,,0,2,2,2,,,,,,,,,0,23,23,23,,,,,,,,,,,,,,,,,,,,,,,,,,,,,,,,,,,,,57.67843959999999,,,,57.664383799999996,57.67843959999999,57.67843959999999,57.67843959999999,57.67843959999999,57.964426300000014,,57.964651100000026,57.978681800000004,57.978681800000004,57.978681800000004,57.978681800000004,58.264078100000006,,,,,,,,,,,,,,,,,,,,,,,,,,,,,,,,,None,None,,,,,,,,,pitolomeu,001,2025-03-21_14h24.58.586,Estimulo_ICE,2024.2.4,60.098826510315476,2025-03-21 14h25.10.268475 -0300,
Estimulo_3,24,24,0,2.2,-2.2,-2.2,2.2,1.99999999999999,-1.99999999999999,1.99999999999999,-1.99999999999999,None,None,,,,,,,,,0,2,2,2,,,,,,,,,0,24,24,24,,,,,,,,,,,,,,,,,,,,,,,,,,,,,,,,,,,,,58.278564200000005,,,,58.26444280000004,58.278564200000005,58.278564200000005,58.278564200000005,58.278564200000005,58.5641746,,58.5644241,58.57872889999999,58.57872889999999,58.57872889999999,58.57872889999999,58.86805190000001,,,,,,,,,,,,,,,,,,,,,,,,,,,,,,,,,None,None,,,,,,,,,pitolomeu,001,2025-03-21_14h24.58.586,Estimulo_ICE,2024.2.4,60.098826510315476,2025-03-21 14h25.10.268475 -0300,
Estimulo_3,25,25,0,2.2,-2.2,-2.2,2.2,1.89999999999999,-1.89999999999999,1.89999999999999,-1.89999999999999,None,None,,,,,,,,,0,2,2,2,,,,,,,,,0,25,25,25,,,,,,,,,,,,,,,,,,,,,,,,,,,,,,,,,,,,,58.88051870000004,,,,58.8689708,58.88051870000004,58.88051870000004,58.88051870000004,58.88051870000004,59.1523004,,59.15290150000004,59.16324739999999,59.16324739999999,59.16324739999999,59.16324739999999,59.464241200000004,,,,,,,,,,,,,,,,,,,,,,,,,,,,,,,,,None,None,,,,,,,,,pitolomeu,001,2025-03-21_14h24.58.586,Estimulo_ICE,2024.2.4,60.098826510315476,2025-03-21 14h25.10.268475 -0300,
Estimulo_3,26,26,0,2.2,-2.2,-2.2,2.2,1.79999999999999,-1.79999999999999,1.79999999999999,-1.79999999999999,None,None,,,,,,,,,0,2,2,2,,,,,,,,,0,26,26,26,,,,,,,,,,,,,,,,,,,,,,,,,,,,,,,,,,,,,59.4785981,,,,59.46467230000002,59.4785981,59.4785981,59.4785981,59.4785981,59.764032799999995,,59.76429460000003,59.77849330000004,59.77849330000004,59.77849330000004,59.77849330000004,60.06417329999999,,,,,,,,,,,,,,,,,,,,,,,,,,,,,,,,,None,None,,,,,,,,,pitolomeu,001,2025-03-21_14h24.58.586,Estimulo_ICE,2024.2.4,60.098826510315476,2025-03-21 14h25.10.268475 -0300,
Estimulo_3,27,27,0,2.2,-2.2,-2.2,2.2,1.69999999999999,-1.69999999999999,1.69999999999999,-1.69999999999999,None,None,,,,,,,,,0,2,2,2,,,,,,,,,0,27,27,27,,,,,,,,,,,,,,,,,,,,,,,,,,,,,,,,,,,,,60.0787297,,,,60.064566600000035,60.0787297,60.0787297,60.0787297,60.0787297,60.36415500000004,,60.36440350000004,60.37867970000002,60.37867970000002,60.37867970000002,60.37867970000002,60.6672691,,,,,,,,,,,,,,,,,,,,,,,,,,,,,,,,,None,None,,,,,,,,,pitolomeu,001,2025-03-21_14h24.58.586,Estimulo_ICE,2024.2.4,60.098826510315476,2025-03-21 14h25.10.268475 -0300,
Estimulo_3,28,28,0,2.2,-2.2,-2.2,2.2,1.59999999999999,-1.59999999999999,1.59999999999999,-1.59999999999999,None,None,,,,,,,,,0,2,2,2,,,,,,,,,0,28,28,28,,,,,,,,,,,,,,,,,,,,,,,,,,,,,,,,,,,,,60.67942390000002,,,,60.66797600000001,60.67942390000002,60.67942390000002,60.67942390000002,60.67942390000002,60.96678489999999,,60.967457800000034,60.97935610000002,60.97935610000002,60.97935610000002,60.97935610000002,61.26435660000004,,,,,,,,,,,,,,,,,,,,,,,,,,,,,,,,,None,None,,,,,,,,,pitolomeu,001,2025-03-21_14h24.58.586,Estimulo_ICE,2024.2.4,60.098826510315476,2025-03-21 14h25.10.268475 -0300,
Estimulo_3,29,29,0,2.2,-2.2,-2.2,2.2,1.49999999999998,-1.49999999999998,1.49999999999998,-1.49999999999998,None,None,,,,,,,,,0,2,2,2,,,,,,,,,0,29,29,29,,,,,,,,,,,,,,,,,,,,,,,,,,,,,,,,,,,,,61.27876259999999,,,,61.26468820000002,61.27876259999999,61.27876259999999,61.27876259999999,61.27876259999999,61.56448280000001,,61.56476710000004,61.57858930000003,61.57858930000003,61.57858930000003,61.57858930000003,61.86415260000001,,,,,,,,,,,,,,,,,,,,,,,,,,,,,,,,,None,None,,,,,,,,,pitolomeu,001,2025-03-21_14h24.58.586,Estimulo_ICE,2024.2.4,60.098826510315476,2025-03-21 14h25.10.268475 -0300,
Estimulo_3,30,30,0,2.2,-2.2,-2.2,2.2,1.39999999999998,-1.39999999999998,1.39999999999998,-1.39999999999998,None,None,,,,,,,,,0,2,2,2,,,,,,,,,0,30,30,30,,,,,,,,,,,,,,,,,,,,,,,,,,,,,,,,,,,,,61.8785987,,,,61.8645133,61.8785987,61.8785987,61.8785987,61.8785987,62.163951499999996,,62.164198699999986,62.17850480000004,62.17850480000004,62.17850480000004,62.17850480000004,62.46427299999999,,,,,,,,,,,,,,,,,,,,,,,,,,,,,,,,,None,None,,,,,,,,,pitolomeu,001,2025-03-21_14h24.58.586,Estimulo_ICE,2024.2.4,60.098826510315476,2025-03-21 14h25.10.268475 -0300,
Estimulo_3,31,31,0,2.2,-2.2,-2.2,2.2,1.29999999999998,-1.29999999999998,1.29999999999998,-1.29999999999998,None,None,,,,,,,,,0,2,2,2,,,,,,,,,0,31,31,31,,,,,,,,,,,,,,,,,,,,,,,,,,,,,,,,,,,,,62.47854360000002,,,,62.464639000000034,62.47854360000002,62.47854360000002,62.47854360000002,62.47854360000002,62.76405390000002,,62.764298800000006,62.77855729999999,62.77855729999999,62.77855729999999,62.77855729999999,63.06429800000001,,,,,,,,,,,,,,,,,,,,,,,,,,,,,,,,,None,None,,,,,,,,,pitolomeu,001,2025-03-21_14h24.58.586,Estimulo_ICE,2024.2.4,60.098826510315476,2025-03-21 14h25.10.268475 -0300,
Estimulo_3,32,32,0,2.2,-2.2,-2.2,2.2,1.19999999999998,-1.19999999999998,1.19999999999998,-1.19999999999998,None,None,,,,,,,,,0,2,2,2,,,,,,,,,0,32,32,32,,,,,,,,,,,,,,,,,,,,,,,,,,,,,,,,,,,,,63.07866740000003,,,,63.06466110000002,63.07866740000003,63.07866740000003,63.07866740000003,63.07866740000003,63.364242700000034,,63.364489400000025,63.37856110000001,63.37856110000001,63.37856110000001,63.37856110000001,63.66418340000001,,,,,,,,,,,,,,,,,,,,,,,,,,,,,,,,,None,None,,,,,,,,,pitolomeu,001,2025-03-21_14h24.58.586,Estimulo_ICE,2024.2.4,60.098826510315476,2025-03-21 14h25.10.268475 -0300,
Estimulo_3,33,33,0,2.2,-2.2,-2.2,2.2,1.09999999999998,-1.09999999999998,1.09999999999998,-1.09999999999998,None,None,,,,,,,,,0,2,2,2,,,,,,,,,0,33,33,33,,,,,,,,,,,,,,,,,,,,,,,,,,,,,,,,,,,,,63.67842390000004,,,,63.664551200000005,63.67842390000004,63.67842390000004,63.67842390000004,63.67842390000004,63.95203630000003,,63.95259820000001,63.96294870000003,63.96294870000003,63.96294870000003,63.96294870000003,64.24827120000003,,,,,,,,,,,,,,,,,,,,,,,,,,,,,,,,,None,None,,,64.37818450000003,64.37818450000003,64.37818450000003,64.37818450000003,,,pitolomeu,001,2025-03-21_14h24.58.586,Estimulo_ICE,2024.2.4,60.098826510315476,2025-03-21 14h25.10.268475 -0300,
Estimulo_3,2,2,0,,,,,,,,,,,,,,,,,,,0,2,2,2,,,,,,,,,,,,,,,,,,,,,,,,,,,,,,,,,,,,,,,,,,,,,,,,,,,,,,,,,,,,,,,,,,,,,,,64.3653258,64.37818450000003,65.76686749999999,,,,,,,,,,,,,,,,,,,,,,,,,,,,,,,,,,,pitolomeu,001,2025-03-21_14h24.58.586,Estimulo_ICE,2024.2.4,60.098826510315476,2025-03-21 14h25.10.268475 -0300,
Estimulo_8,0,0,0,2.2,-2.2,-2.2,2.2,1.09999999999998,-1.09999999999998,1.09999999999998,-1.09999999999998,,,,,,,None,None,,,0,3,3,7,,,,,,,,,,,,,,,,,,,,,,,,,,,,,0,0,0,0,,,,,,,,,,,,,,,,,65.8947326,,65.76704920000003,65.76759340000001,,,,,,,,,,,,,,,,,,,,,,65.8860426,65.8947326,65.8947326,65.8947326,65.8947326,66.06469420000002,,66.06496190000001,66.07864280000001,66.07864280000001,66.07864280000001,66.07864280000001,66.3787418,66.3787418,66.3787418,66.3787418,66.36465830000003,,,,,,,,,,,,,,,,None,None,pitolomeu,001,2025-03-21_14h24.58.586,Estimulo_ICE,2024.2.4,60.098826510315476,2025-03-21 14h25.10.268475 -0300,
,1,1,0,2.2,-2.2,-2.2,2.2,1.19999999999998,-1.19999999999998,1.19999999999998,-1.19999999999998,,,,,,,,,,,,,,,,,,,,,,,,,,,,,,,,,,,,,,,,,,,0,1,1,1,,,,,,,,,,,,,,,,,66.3787418,,,,,,,,,,,,,,,,,,,,,,,,,66.36502920000004,66.3787418,66.3787418,66.3787418,66.3787418,66.66447220000003,,66.66473730000001,66.67856330000001,66.67856330000001,66.67856330000001,66.67856330000001,,,,,,,66.67856330000001,66.67856330000001,66.67856330000001,66.67856330000001,,,,,,,,,,,None,,,,,,,,,
